Subject;RT;Trial;Sex;NativeLanguage;Correct;Word;Frequency;Length;Class
A1;6,340359;23;F;English;correct;owl;4,859812;3;animal
A1;6,308098;27;F;English;correct;mole;4,60517;4;animal
A1;6,349139;29;F;English;correct;cherry;4,997212;6;plant
A1;6,186209;30;F;English;correct;pear;NA;4;plant
A1;6,025866;32;F;English;correct;dog;pas fini;3;animal
A1;6,180017;33;F;English;correct;blackberry;4,060443;10;plant
A1;6,035481;34;F;English;correct;strawberry;4,75359;10;plant
A1;6,263398;38;F;English;correct;squirrel;4,70953;8;animal
A1;6,459904;41;F;English;correct;radish;3,044522;6;plant
A1;6,184149;42;F;English;correct;almond;4,204693;6;plant
A1;6,137727;45;F;English;correct;whale;5,298317;5;animal
A1;6,242223;46;F;English;correct;reindeer;4,043051;8;animal
A1;6,003887;47;F;English;correct;blueberry;2,484907;9;plant
A1;6,035481;48;F;English;correct;lemon;5,631212;5;plant
A1;6,322565;53;F;English;correct;bee;5,700444;3;animal
A1;5,988961;54;F;English;correct;goat;6,228511;4;animal
A1;6,285998;55;F;English;correct;eggplant;1,791759;8;plant
A1;6,381816;58;F;English;correct;tomato;5,545177;6;plant
A1;5,958425;59;F;English;correct;peanut;4,59512;6;plant
A1;6,124683;61;F;English;incorrect;bat;5,918894;3;animal
A1;6,741701;62;F;English;correct;mustard;4,442651;7;plant
A1;6,821107;64;F;English;correct;magpie;2,995732;6;animal
A1;6,40688;65;F;English;correct;stork;3,044522;5;animal
A1;6,421622;67;F;English;correct;goose;5,267858;5;animal
A1;6,320768;68;F;English;correct;squid;3,970292;5;animal
A1;6,20859;75;F;English;correct;carrot;4,976734;6;plant
A1;6,214608;76;F;English;correct;crocodile;4,615121;9;animal
A1;7,114769;79;F;English;correct;tortoise;4,624973;8;animal
A1;6,09131;80;F;English;correct;spider;4,844187;6;animal
A1;6,20859;82;F;English;correct;grape;5,192957;5;plant
A1;6,36647;88;F;English;correct;fox;5,652489;3;animal
A1;6,582025;91;F;English;correct;potato;6,461468;6;plant
A1;6,514713;93;F;English;correct;frog;5,129899;4;animal
A1;6,352629;94;F;English;correct;beetroot;3,555348;8;plant
A1;6,278521;96;F;English;correct;asparagus;3,663562;9;plant
A1;5,988961;97;F;English;correct;mouse;5,805135;5;animal
A1;6,079933;98;F;English;correct;dolphin;4,007333;7;animal
A1;6,126869;100;F;English;correct;pineapple;3,988984;9;plant
A1;6,284134;102;F;English;correct;lettuce;4,812184;7;plant
A1;6,089045;106;F;English;correct;sheep;6,577861;5;animal
A1;6,383507;108;F;English;correct;cucumber;4,454347;8;plant
A1;6,22059;109;F;English;correct;gherkin;2,079442;7;plant
A1;6,381816;111;F;English;correct;gull;4,418841;4;animal
A1;6,202536;113;F;English;correct;pig;6,660575;3;animal
A1;6,356108;119;F;English;correct;camel;6,109248;5;animal
A1;6,107023;120;F;English;correct;shark;5,880533;5;animal
A1;6,517671;123;F;English;correct;vulture;4,248495;7;animal
A1;6,317165;125;F;English;correct;snake;6,120297;5;animal
A1;6,086775;126;F;English;correct;donkey;5,541264;6;animal
A1;6,163315;127;F;English;correct;broccoli;2,833213;8;plant
A1;6,673298;129;F;English;correct;apricot;3,828641;7;plant
A1;6,434547;133;F;English;correct;leek;3,332205;4;plant
A1;6,33328;134;F;English;correct;clove;3,663562;5;plant
A1;6,202536;135;F;English;correct;banana;5,023881;6;plant
A1;6,111467;136;F;English;correct;lion;6,098074;4;animal
A1;6,326149;139;F;English;correct;elephant;6,063785;8;animal
A1;6,903747;141;F;English;correct;hedgehog;3,637586;8;animal
A1;6,306275;144;F;English;correct;eagle;5,117994;5;animal
A1;6,118097;146;F;English;correct;apple;6,304449;5;plant
A1;6,472346;148;F;English;correct;kiwi;3,044522;4;plant
A1;6,697034;151;F;English;correct;wasp;4,682131;4;animal
A1;6,148468;152;F;English;correct;cat;7,086738;3;animal
A1;6,59987;153;F;English;correct;paprika;2,484907;7;plant
A1;6,775366;157;F;English;correct;ant;5,347108;3;animal
A1;6,36647;162;F;English;correct;bunny;3,332205;5;animal
A1;6,274762;163;F;English;correct;beaver;3,951244;6;animal
A1;6,023448;164;F;English;correct;horse;7,77191;5;animal
A1;6,139885;167;F;English;correct;mushroom;5,537334;8;plant
A1;6,293419;168;F;English;correct;woodpecker;2,890372;10;animal
A1;6,021023;169;F;English;correct;moose;2,70805;5;animal
A1;6,188264;170;F;English;correct;orange;6,378426;6;plant
A1;6,194405;173;F;English;correct;avocado;3,433987;7;plant
A1;5,899897;174;F;English;correct;chicken;6,59987;7;animal
A1;6,364751;177;F;English;correct;butterfly;5,214936;9;animal
A1;5,97381;179;F;English;correct;olive;5,587249;5;plant
A1;6,037871;180;F;English;correct;swan;4,962845;4;animal
A1;5,97381;182;F;English;correct;walnut;4,49981;6;plant
A1;6,282267;184;F;English;correct;melon;4,127134;5;plant
A1;6,040255;185;F;English;correct;monkey;5,783825;6;animal
A2;6,329721;23;M;English;correct;dog;7,667626;3;animal
A2;6,20859;25;M;English;correct;apricot;3,828641;7;plant
A2;6,270988;31;M;English;correct;beaver;3,951244;6;animal
A2;6,45047;32;M;English;correct;dolphin;4,007333;7;animal
A2;6,36647;33;M;English;correct;walnut;4,49981;6;plant
A2;6,293419;36;M;English;correct;camel;6,109248;5;animal
A2;6,198479;39;M;English;correct;olive;5,587249;5;plant
A2;6,154858;42;M;English;correct;whale;5,298317;5;animal
A2;6,20859;44;M;English;correct;donkey;5,541264;6;animal
A2;6,156979;45;M;English;correct;lettuce;4,812184;7;plant
A2;6,146329;46;M;English;correct;gull;4,418841;4;animal
A2;5,942799;50;M;English;correct;goat;6,228511;4;animal
A2;5,993961;53;M;English;incorrect;hedgehog;3,637586;8;animal
A2;6,167516;54;M;English;correct;spider;4,844187;6;animal
A2;6,013715;55;M;English;correct;squid;3,970292;5;animal
A2;6,161207;57;M;English;correct;mustard;4,442651;7;plant
A2;6,146329;59;M;English;correct;radish;3,044522;6;plant
A2;6,2106;63;M;English;correct;lemon;5,631212;5;plant
A2;6,163315;65;M;English;correct;chicken;6,59987;7;animal
A2;6,831954;66;M;English;correct;lion;6,098074;4;animal
A2;6,154858;67;M;English;incorrect;paprika;2,484907;7;plant
A2;6,2106;68;M;English;correct;moose;2,70805;5;animal
A2;6,22059;71;M;English;correct;cherry;4,997212;6;plant
A2;6,253829;72;M;English;correct;reindeer;4,043051;8;animal
A2;6,082219;73;M;English;correct;owl;4,859812;3;animal
A2;6,289716;74;M;English;correct;asparagus;3,663562;9;plant
A2;6,068426;79;M;English;correct;mouse;5,805135;5;animal
A2;6,152733;83;M;English;correct;kiwi;3,044522;4;plant
A2;6,192362;84;M;English;correct;bee;5,700444;3;animal
A2;6,721426;85;M;English;correct;leek;3,332205;4;plant
A2;6,222576;87;M;English;correct;woodpecker;2,890372;10;animal
A2;6,154858;90;M;English;correct;shark;5,880533;5;animal
A2;6,53814;91;M;English;correct;vulture;4,248495;7;animal
A2;6,025866;92;M;English;correct;avocado;3,433987;7;plant
A2;5,942799;93;M;English;correct;crocodile;4,615121;9;animal
A2;6,086775;94;M;English;correct;frog;5,129899;4;animal
A2;6,20859;95;M;English;correct;cucumber;4,454347;8;plant
A2;6,152733;99;M;English;correct;eagle;5,117994;5;animal
A2;6,22059;100;M;English;correct;tomato;5,545177;6;plant
A2;6,280396;101;M;English;correct;broccoli;2,833213;8;plant
A2;6,159095;103;M;English;correct;eggplant;1,791759;8;plant
A2;5,993961;105;M;English;correct;strawberry;4,75359;10;plant
A2;6,641182;107;M;English;correct;stork;3,044522;5;animal
A2;6,248043;108;M;English;correct;blackberry;4,060443;10;plant
A2;6,230481;110;M;English;correct;clove;3,663562;5;plant
A2;6,163315;111;M;English;correct;bunny;3,332205;5;animal
A2;5,966147;112;M;English;correct;horse;7,77191;5;animal
A2;6,434547;115;M;English;correct;mole;4,60517;4;animal
A2;6,077642;116;M;English;correct;ant;5,347108;3;animal
A2;5,902633;117;M;English;correct;goose;5,267858;5;animal
A2;6,249975;122;M;English;correct;pear;4,727388;4;plant
A2;6,095825;123;M;English;correct;snake;6,120297;5;animal
A2;6,169611;125;M;English;correct;bat;5,918894;3;animal
A2;6,214608;126;M;English;correct;wasp;4,682131;4;animal
A2;6,345636;134;M;English;correct;monkey;5,783825;6;animal
A2;6,363028;135;M;English;correct;banana;5,023881;6;plant
A2;6,169611;141;M;English;correct;potato;6,461468;6;plant
A2;6,278521;142;M;English;correct;carrot;4,976734;6;plant
A2;6,115892;143;M;English;correct;orange;6,378426;6;plant
A2;6,285998;146;M;English;correct;pineapple;3,988984;9;plant
A2;6,251904;148;M;English;correct;sheep;6,577861;5;animal
A2;6,175867;149;M;English;correct;melon;4,127134;5;plant
A2;6,113682;150;M;English;correct;butterfly;5,214936;9;animal
A2;6,284134;152;M;English;correct;magpie;2,995732;6;animal
A2;6,013715;153;M;English;correct;blueberry;2,484907;9;plant
A2;6,075346;154;M;English;correct;peanut;4,59512;6;plant
A2;6,104793;156;M;English;correct;mushroom;5,537334;8;plant
A2;5,828946;159;M;English;incorrect;pig;6,660575;3;animal
A2;6,522093;160;M;English;correct;squirrel;4,70953;8;animal
A2;6,23637;163;M;English;correct;elephant;6,063785;8;animal
A2;6,489205;165;M;English;correct;swan;4,962845;4;animal
A2;6,700731;166;M;English;correct;gherkin;2,079442;7;plant
A2;6,466145;169;M;English;correct;tortoise;4,624973;8;animal
A2;6,257668;171;M;English;correct;beetroot;3,555348;8;plant
A2;6,315358;173;M;English;correct;almond;4,204693;6;plant
A2;6,308098;174;M;English;correct;fox;5,652489;3;animal
A2;6,23637;176;M;English;correct;grape;5,192957;5;plant
A2;6,198479;180;M;English;correct;cat;7,086738;3;animal
A2;6,12905;184;M;English;correct;apple;6,304449;5;plant
A3;6,410175;28;F;Other;correct;strawberry;4,75359;10;plant
A3;6,315358;29;F;Other;correct;crocodile;4,615121;9;animal
A3;6,385194;32;F;Other;correct;cherry;4,997212;6;plant
A3;6,35437;34;F;Other;correct;bunny;3,332205;5;animal
A3;6,716595;35;F;Other;correct;paprika;2,484907;7;plant
A3;6,261492;36;F;Other;correct;lemon;5,631212;5;plant
A3;6,304449;40;F;Other;correct;clove;3,663562;5;plant
A3;6,408529;41;F;Other;correct;ant;5,347108;3;animal
A3;6,331502;44;F;Other;correct;pig;6,660575;3;animal
A3;6,401917;46;F;Other;correct;shark;5,880533;5;animal
A3;6,313548;48;F;Other;correct;kiwi;3,044522;4;plant
A3;6,483107;50;F;Other;correct;owl;4,859812;3;animal
A3;6,327937;51;F;Other;correct;avocado;3,433987;7;plant
A3;6,234411;52;F;Other;correct;fox;5,652489;3;animal
A3;6,36647;55;F;Other;correct;goat;6,228511;4;animal
A3;6,327937;56;F;Other;correct;walnut;4,49981;6;plant
A3;6,472346;57;F;Other;correct;tortoise;4,624973;8;animal
A3;6,376727;58;F;Other;correct;goose;5,267858;5;animal
A3;6,383507;61;F;Other;correct;eggplant;1,791759;8;plant
A3;6,36647;64;F;Other;correct;moose;2,70805;5;animal
A3;6,510258;65;F;Other;correct;gull;4,418841;4;animal
A3;6,253829;67;F;Other;correct;eagle;5,117994;5;animal
A3;6,263398;69;F;Other;correct;stork;3,044522;5;animal
A3;6,401917;70;F;Other;correct;blueberry;2,484907;9;plant
A3;6,280396;71;F;Other;correct;squid;3,970292;5;animal
A3;6,44572;72;F;Other;correct;asparagus;3,663562;9;plant
A3;6,317165;73;F;Other;correct;carrot;4,976734;6;plant
A3;6,356108;74;F;Other;correct;lettuce;4,812184;7;plant
A3;6,238325;75;F;Other;correct;snake;6,120297;5;animal
A3;6,804615;79;F;Other;correct;hedgehog;3,637586;8;animal
A3;6,376727;80;F;Other;correct;butterfly;5,214936;9;animal
A3;6,240276;82;F;Other;correct;beaver;3,951244;6;animal
A3;6,194405;83;F;Other;correct;banana;5,023881;6;plant
A3;6,447306;85;F;Other;correct;cat;7,086738;3;animal
A3;6,359574;89;F;Other;correct;elephant;6,063785;8;animal
A3;6,437752;90;F;Other;correct;peanut;4,59512;6;plant
A3;6,302619;93;F;Other;correct;cucumber;4,454347;8;plant
A3;6,263398;96;F;Other;correct;chicken;6,59987;7;animal
A3;6,251904;98;F;Other;correct;mustard;4,442651;7;plant
A3;6,33328;100;F;Other;correct;apple;6,304449;5;plant
A3;6,171701;105;F;Other;correct;monkey;5,783825;6;animal
A3;6,289716;106;F;Other;correct;melon;4,127134;5;plant
A3;6,25575;108;F;Other;correct;leek;3,332205;4;plant
A3;6,253829;109;F;Other;correct;camel;6,109248;5;animal
A3;6,487684;111;F;Other;correct;woodpecker;2,890372;10;animal
A3;6,452049;115;F;Other;correct;reindeer;4,043051;8;animal
A3;6,405228;116;F;Other;correct;donkey;5,541264;6;animal
A3;6,242223;120;F;Other;correct;orange;6,378426;6;plant
A3;6,437752;122;F;Other;correct;dolphin;4,007333;7;animal
A3;6,375025;124;F;Other;correct;blackberry;4,060443;10;plant
A3;6,475433;126;F;Other;correct;mole;4,60517;4;animal
A3;6,452049;132;F;Other;correct;bat;5,918894;3;animal
A3;6,415097;133;F;Other;correct;mouse;5,805135;5;animal
A3;6,378426;134;F;Other;correct;whale;5,298317;5;animal
A3;6,444131;136;F;Other;correct;broccoli;2,833213;8;plant
A3;6,361302;138;F;Other;correct;frog;5,129899;4;animal
A3;6,55108;139;F;Other;correct;tomato;5,545177;6;plant
A3;7,044033;143;F;Other;correct;almond;4,204693;6;plant
A3;6,459904;148;F;Other;correct;vulture;4,248495;7;animal
A3;6,410175;149;F;Other;correct;mushroom;5,537334;8;plant
A3;6,361302;150;F;Other;correct;lion;6,098074;4;animal
A3;6,242223;154;F;Other;correct;dog;7,667626;3;animal
A3;6,458338;156;F;Other;correct;pear;4,727388;4;plant
A3;7,132498;157;F;Other;correct;radish;3,044522;6;plant
A3;6,388561;158;F;Other;correct;olive;5,587249;5;plant
A3;6,419995;160;F;Other;correct;bee;5,700444;3;animal
A3;6,43294;161;F;Other;correct;magpie;2,995732;6;animal
A3;6,2106;162;F;Other;correct;potato;6,461468;6;plant
A3;6,390241;163;F;Other;correct;pineapple;3,988984;9;plant
A3;6,605298;165;F;Other;correct;wasp;4,682131;4;animal
A3;6,459904;168;F;Other;correct;beetroot;3,555348;8;plant
A3;6,416732;169;F;Other;correct;squirrel;4,70953;8;animal
A3;6,495266;171;F;Other;correct;sheep;6,577861;5;animal
A3;6,278521;175;F;Other;correct;apricot;3,828641;7;plant
A3;6,421622;176;F;Other;correct;horse;7,77191;5;animal
A3;6,434547;179;F;Other;correct;spider;4,844187;6;animal
A3;6,466145;180;F;Other;correct;grape;5,192957;5;plant
A3;6,44254;181;F;Other;correct;gherkin;2,079442;7;plant
A3;6,380123;185;F;Other;correct;swan;4,962845;4;animal
C;6,533789;23;F;English;correct;vulture;4,248495;7;animal
C;6,53814;26;F;English;correct;camel;6,109248;5;animal
C;6,246107;27;F;English;correct;kiwi;3,044522;4;plant
C;6,416732;28;F;English;correct;avocado;3,433987;7;plant
C;6,284134;29;F;English;correct;gull;4,418841;4;animal
C;6,473891;31;F;English;correct;banana;5,023881;6;plant
C;6,269096;33;F;English;correct;whale;5,298317;5;animal
C;6,398595;35;F;English;correct;donkey;5,541264;6;animal
C;6,196444;36;F;English;correct;shark;5,880533;5;animal
C;6,33328;38;F;English;correct;chicken;6,59987;7;animal
C;6,173786;39;F;English;correct;monkey;5,783825;6;animal
C;6,173786;41;F;English;correct;wasp;4,682131;4;animal
C;6,180017;46;F;English;correct;cat;7,086738;3;animal
C;6,386879;53;F;English;correct;eggplant;1,791759;8;plant
C;6,499787;54;F;English;correct;gherkin;2,079442;7;plant
C;6,173786;55;F;English;correct;bat;5,918894;3;animal
C;6,070738;56;F;English;correct;bee;5,700444;3;animal
C;6,304449;59;F;English;correct;spider;4,844187;6;animal
C;6,20859;60;F;English;correct;squid;3,970292;5;animal
C;6,395262;62;F;English;correct;pineapple;3,988984;9;plant
C;6,483107;66;F;English;correct;swan;4,962845;4;animal
C;6,293419;67;F;English;correct;strawberry;4,75359;10;plant
C;6,293419;69;F;English;correct;sheep;6,577861;5;animal
C;6,272877;70;F;English;correct;walnut;4,49981;6;plant
C;6,496775;72;F;English;correct;tortoise;4,624973;8;animal
C;6,25575;73;F;English;correct;lion;6,098074;4;animal
C;6,234411;74;F;English;correct;goat;6,228511;4;animal
C;6,380123;76;F;English;correct;asparagus;3,663562;9;plant
C;6,306275;78;F;English;correct;apricot;3,828641;7;plant
C;6,259581;80;F;English;correct;pig;6,660575;3;animal
C;6,249975;81;F;English;correct;apple;6,304449;5;plant
C;6,280396;82;F;English;correct;mustard;4,442651;7;plant
C;6,487684;83;F;English;correct;hedgehog;3,637586;8;animal
C;6,586172;86;F;English;correct;ant;5,347108;3;animal
C;6,411818;88;F;English;correct;fox;5,652489;3;animal
C;6,36647;89;F;English;correct;elephant;6,063785;8;animal
C;6,214608;90;F;English;correct;moose;2,70805;5;animal
C;6,276643;91;F;English;correct;beetroot;3,555348;8;plant
C;6,326149;93;F;English;correct;carrot;4,976734;6;plant
C;6,270988;100;F;English;correct;snake;6,120297;5;animal
C;6,190315;102;F;English;correct;olive;5,587249;5;plant
C;6,115892;109;F;English;correct;pear;4,727388;4;plant
C;6,285998;112;F;English;correct;butterfly;5,214936;9;animal
C;6,295266;113;F;English;correct;blueberry;2,484907;9;plant
C;6,287859;114;F;English;correct;mole;4,60517;4;animal
C;6,284134;115;F;English;correct;cucumber;4,454347;8;plant
C;6,23637;116;F;English;correct;orange;6,378426;6;plant
C;6,186209;122;F;English;correct;lemon;5,631212;5;plant
C;6,43615;124;F;English;correct;horse;7,77191;5;animal
C;6,369901;127;F;English;correct;squirrel;4,70953;8;animal
C;6,152733;130;F;English;correct;goose;5,267858;5;animal
C;6,146329;131;F;English;correct;bunny;3,332205;5;animal
C;6,440947;134;F;English;correct;almond;4,204693;6;plant
C;6,173786;135;F;English;correct;clove;3,663562;5;plant
C;6,331502;137;F;English;correct;peanut;4,59512;6;plant
C;6,486161;140;F;English;correct;beaver;3,951244;6;animal
C;6,171701;141;F;English;correct;mushroom;5,537334;8;plant
C;6,324359;144;F;English;correct;dog;7,667626;3;animal
C;6,679599;145;F;English;correct;frog;5,129899;4;animal
C;6,311735;146;F;English;correct;stork;3,044522;5;animal
C;6,423247;148;F;English;correct;potato;6,461468;6;plant
C;6,591674;150;F;English;correct;radish;3,044522;6;plant
C;6,405228;151;F;English;correct;paprika;2,484907;7;plant
C;6,338594;153;F;English;correct;blackberry;4,060443;10;plant
C;6,418365;159;F;English;correct;lettuce;4,812184;7;plant
C;6,376727;161;F;English;correct;mouse;5,805135;5;animal
C;6,163315;162;F;English;correct;crocodile;4,615121;9;animal
C;6,46925;164;F;English;correct;reindeer;4,043051;8;animal
C;6,265301;165;F;English;incorrect;broccoli;2,833213;8;plant
C;6,385194;168;F;English;correct;tomato;5,545177;6;plant
C;6,493754;172;F;English;correct;leek;3,332205;4;plant
C;6,426488;174;F;English;correct;magpie;2,995732;6;animal
C;6,171701;175;F;English;correct;owl;4,859812;3;animal
C;6,180017;177;F;English;correct;cherry;4,997212;6;plant
C;6,293419;178;F;English;correct;eagle;5,117994;5;animal
C;6,304449;179;F;English;correct;woodpecker;2,890372;10;animal
C;6,364751;181;F;English;correct;dolphin;4,007333;7;animal
C;6,246107;182;F;English;correct;melon;4,127134;5;plant
C;6,234411;184;F;English;correct;grape;5,192957;5;plant
D;6,232448;24;M;Other;correct;peanut;4,59512;6;plant
D;6,349139;28;M;Other;correct;swan;4,962845;4;animal
D;6,375025;29;M;Other;correct;lettuce;4,812184;7;plant
D;6,315358;30;M;Other;correct;walnut;4,49981;6;plant
D;6,440947;32;M;Other;correct;beetroot;3,555348;8;plant
D;6,284134;33;M;Other;correct;broccoli;2,833213;8;plant
D;6,300786;37;M;Other;correct;spider;4,844187;6;animal
D;6,458338;41;M;Other;correct;cucumber;4,454347;8;plant
D;6,350886;44;M;Other;correct;blackberry;4,060443;10;plant
D;6,380123;46;M;Other;correct;snake;6,120297;5;animal
D;6,272877;47;M;Other;correct;cat;7,086738;3;animal
D;6,287859;48;M;Other;correct;fox;5,652489;3;animal
D;6,466145;49;M;Other;correct;gherkin;2,079442;7;plant
D;6,539586;51;M;Other;correct;tomato;5,545177;6;plant
D;6,472346;54;M;Other;correct;squirrel;4,70953;8;animal
D;6,33328;56;M;Other;correct;woodpecker;2,890372;10;animal
D;6,602588;59;M;Other;correct;squid;3,970292;5;animal
D;6,437752;60;M;Other;correct;butterfly;5,214936;9;animal
D;6,122493;61;M;Other;correct;orange;6,378426;6;plant
D;6,34388;62;M;Other;correct;beaver;3,951244;6;animal
D;6,122493;63;M;Other;correct;dog;7,667626;3;animal
D;6,084499;64;M;Other;correct;banana;5,023881;6;plant
D;6,175867;65;M;Other;correct;blueberry;2,484907;9;plant
D;6,226537;66;M;Other;correct;donkey;5,541264;6;animal
D;5,993961;67;M;Other;correct;pig;6,660575;3;animal
D;6,320768;70;M;Other;correct;paprika;2,484907;7;plant
D;6,588926;72;M;Other;correct;carrot;4,976734;6;plant
D;6,214608;74;M;Other;correct;camel;6,109248;5;animal
D;6,434547;76;M;Other;correct;whale;5,298317;5;animal
D;6,313548;77;M;Other;correct;mouse;5,805135;5;animal
D;6,244167;78;M;Other;correct;kiwi;3,044522;4;plant
D;6,448889;80;M;Other;correct;avocado;3,433987;7;plant
D;6,261492;85;M;Other;correct;cherry;4,997212;6;plant
D;6,309918;86;M;Other;correct;owl;4,859812;3;animal
D;6,514713;87;M;Other;correct;reindeer;4,043051;8;animal
D;6,265301;89;M;Other;correct;lion;6,098074;4;animal
D;6,265301;90;M;Other;incorrect;tortoise;4,624973;8;animal
D;6,419995;91;M;Other;correct;olive;5,587249;5;plant
D;6,361302;92;M;Other;correct;mole;4,60517;4;animal
D;6,378426;97;M;Other;correct;apricot;3,828641;7;plant
D;6,49224;99;M;Other;correct;shark;5,880533;5;animal
D;6,295266;100;M;Other;correct;elephant;6,063785;8;animal
D;6,368187;101;M;Other;correct;radish;3,044522;6;plant
D;6,287859;108;M;Other;correct;bat;5,918894;3;animal
D;6,309918;109;M;Other;incorrect;goat;6,228511;4;animal
D;6,395262;110;M;Other;correct;bunny;3,332205;5;animal
D;6,165418;111;M;Other;correct;grape;5,192957;5;plant
D;6,350886;115;M;Other;correct;lemon;5,631212;5;plant
D;6,59987;117;M;Other;correct;hedgehog;3,637586;8;animal
D;6,198479;118;M;Other;correct;apple;6,304449;5;plant
D;6,297109;123;M;Other;correct;horse;7,77191;5;animal
D;6,311735;126;M;Other;correct;strawberry;4,75359;10;plant
D;6,594413;128;M;Other;correct;stork;3,044522;5;animal
D;6,352629;129;M;Other;correct;melon;4,127134;5;plant
D;6,40688;130;M;Other;incorrect;gull;4,418841;4;animal
D;6,467699;132;M;Other;correct;moose;2,70805;5;animal
D;6,33328;133;M;Other;correct;sheep;6,577861;5;animal
D;6,956545;136;M;Other;correct;goose;5,267858;5;animal
D;6,44254;138;M;Other;correct;ant;5,347108;3;animal
D;6,54535;139;M;Other;correct;asparagus;3,663562;9;plant
D;6,244167;140;M;Other;correct;monkey;5,783825;6;animal
D;6,771936;149;M;Other;correct;pineapple;3,988984;9;plant
D;6,395262;150;M;Other;correct;wasp;4,682131;4;animal
D;6,51323;152;M;Other;correct;mushroom;5,537334;8;plant
D;6,552508;155;M;Other;correct;leek;3,332205;4;plant
D;6,444131;157;M;Other;correct;dolphin;4,007333;7;animal
D;6,415097;160;M;Other;correct;almond;4,204693;6;plant
D;6,59987;164;M;Other;correct;clove;3,663562;5;plant
D;6,455199;168;M;Other;correct;mustard;4,442651;7;plant
D;6,276643;169;M;Other;correct;pear;4,727388;4;plant
D;6,98379;172;M;Other;correct;chicken;6,59987;7;animal
D;6,658011;175;M;Other;correct;eagle;5,117994;5;animal
D;6,790097;176;M;Other;correct;vulture;4,248495;7;animal
D;6,741701;177;M;Other;correct;frog;5,129899;4;animal
D;6,572283;180;M;Other;correct;potato;6,461468;6;plant
D;6,352629;181;M;Other;correct;magpie;2,995732;6;animal
D;6,603944;183;M;Other;correct;bee;5,700444;3;animal
D;6,507278;184;M;Other;correct;crocodile;4,615121;9;animal
D;6,719013;185;M;Other;correct;eggplant;1,791759;8;plant
I;6,194405;24;F;Other;correct;dolphin;4,007333;7;animal
I;6,566672;32;F;Other;correct;vulture;4,248495;7;animal
I;6,23637;34;F;Other;correct;pig;6,660575;3;animal
I;6,495266;35;F;Other;correct;cherry;4,997212;6;plant
I;6,09131;36;F;Other;correct;orange;6,378426;6;plant
I;6,09357;40;F;Other;correct;shark;5,880533;5;animal
I;6,295266;41;F;Other;correct;crocodile;4,615121;9;animal
I;6,363028;42;F;Other;correct;reindeer;4,043051;8;animal
I;6,066108;43;F;Other;correct;lion;6,098074;4;animal
I;6,102559;44;F;Other;correct;donkey;5,541264;6;animal
I;6,46925;45;F;Other;correct;gull;4,418841;4;animal
I;6,259581;46;F;Other;correct;blueberry;2,484907;9;plant
I;7,135687;48;F;Other;correct;snake;6,120297;5;animal
I;5,97381;50;F;Other;correct;grape;5,192957;5;plant
I;5,905362;51;F;Other;correct;carrot;4,976734;6;plant
I;6,263398;52;F;Other;correct;butterfly;5,214936;9;animal
I;6,030685;54;F;Other;correct;apple;6,304449;5;plant
I;6,431331;56;F;Other;correct;lettuce;4,812184;7;plant
I;6,483107;57;F;Other;correct;asparagus;3,663562;9;plant
I;6,194405;58;F;Other;correct;goat;6,228511;4;animal
I;6,061457;59;F;Other;correct;clove;3,663562;5;plant
I;6,368187;63;F;Other;correct;bunny;3,332205;5;animal
I;6,282267;67;F;Other;correct;swan;4,962845;4;animal
I;6,320768;69;F;Other;correct;eggplant;1,791759;8;plant
I;6,329721;71;F;Other;correct;strawberry;4,75359;10;plant
I;6,390241;73;F;Other;correct;mustard;4,442651;7;plant
I;6,368187;74;F;Other;correct;magpie;2,995732;6;animal
I;6,383507;76;F;Other;correct;beaver;3,951244;6;animal
I;6,848005;77;F;Other;correct;broccoli;2,833213;8;plant
I;6,146329;78;F;Other;correct;elephant;6,063785;8;animal
I;6,09131;79;F;Other;correct;banana;5,023881;6;plant
I;6,167516;85;F;Other;correct;sheep;6,577861;5;animal
I;6,238325;86;F;Other;correct;melon;4,127134;5;plant
I;6,326149;87;F;Other;correct;almond;4,204693;6;plant
I;5,976351;88;F;Other;correct;potato;6,461468;6;plant
I;6,331502;90;F;Other;correct;hedgehog;3,637586;8;animal
I;6,411818;93;F;Other;correct;leek;3,332205;4;plant
I;6,148468;96;F;Other;correct;whale;5,298317;5;animal
I;6,049733;98;F;Other;correct;tomato;5,545177;6;plant
I;5,961005;102;F;Other;correct;mouse;5,805135;5;animal
I;6,327937;105;F;Other;correct;ant;5,347108;3;animal
I;6,251904;109;F;Other;correct;goose;5,267858;5;animal
I;6,401917;110;F;Other;correct;paprika;2,484907;7;plant
I;6,837333;111;F;Other;correct;woodpecker;2,890372;10;animal
I;6,154858;115;F;Other;correct;pineapple;3,988984;9;plant
I;6,161207;121;F;Other;correct;bat;5,918894;3;animal
I;6,169611;125;F;Other;correct;cat;7,086738;3;animal
I;5,998937;127;F;Other;correct;bee;5,700444;3;animal
I;6,161207;130;F;Other;correct;avocado;3,433987;7;plant
I;6,068426;132;F;Other;correct;eagle;5,117994;5;animal
I;6,011267;133;F;Other;correct;olive;5,587249;5;plant
I;6,212606;134;F;Other;correct;beetroot;3,555348;8;plant
I;6,248043;135;F;Other;correct;frog;5,129899;4;animal
I;6,357842;137;F;Other;correct;mushroom;5,537334;8;plant
I;6,434547;138;F;Other;correct;gherkin;2,079442;7;plant
I;6,177944;140;F;Other;correct;spider;4,844187;6;animal
I;6,421622;146;F;Other;correct;fox;5,652489;3;animal
I;6,575076;149;F;Other;correct;monkey;5,783825;6;animal
I;6,206576;151;F;Other;correct;squirrel;4,70953;8;animal
I;6,369901;153;F;Other;correct;mole;4,60517;4;animal
I;6,259581;155;F;Other;correct;dog;7,667626;3;animal
I;6,186209;156;F;Other;correct;peanut;4,59512;6;plant
I;6,109248;157;F;Other;correct;owl;4,859812;3;animal
I;6,666957;158;F;Other;correct;wasp;4,682131;4;animal
I;6,09357;159;F;Other;correct;squid;3,970292;5;animal
I;5,981414;163;F;Other;correct;pear;4,727388;4;plant
I;6,154858;164;F;Other;correct;chicken;6,59987;7;animal
I;6,063785;165;F;Other;correct;radish;3,044522;6;plant
I;6,263398;168;F;Other;correct;cucumber;4,454347;8;plant
I;6,070738;169;F;Other;correct;apricot;3,828641;7;plant
I;5,921578;170;F;Other;correct;camel;6,109248;5;animal
I;6,398595;171;F;Other;correct;blackberry;4,060443;10;plant
I;5,996452;173;F;Other;correct;lemon;5,631212;5;plant
I;6,400257;174;F;Other;correct;tortoise;4,624973;8;animal
I;5,945421;176;F;Other;correct;kiwi;3,044522;4;plant
I;6,008813;178;F;Other;correct;horse;7,77191;5;animal
I;6,642487;182;F;Other;correct;stork;3,044522;5;animal
I;6,244167;183;F;Other;correct;walnut;4,49981;6;plant
I;6,188264;184;F;Other;correct;moose;2,70805;5;animal
J;6,714171;23;F;Other;correct;beaver;3,951244;6;animal
J;6,075346;26;F;Other;incorrect;hedgehog;3,637586;8;animal
J;6,519147;27;F;Other;correct;gull;4,418841;4;animal
J;6,34388;30;F;Other;correct;carrot;4,976734;6;plant
J;6,34388;32;F;Other;correct;clove;3,663562;5;plant
J;6,496775;36;F;Other;correct;mouse;5,805135;5;animal
J;6,848005;38;F;Other;correct;bunny;3,332205;5;animal
J;6,261492;42;F;Other;correct;pig;6,660575;3;animal
J;6,246107;43;F;Other;correct;ant;5,347108;3;animal
J;6,300786;44;F;Other;correct;eggplant;1,791759;8;plant
J;6,194405;47;F;Other;incorrect;gherkin;2,079442;7;plant
J;6,51323;49;F;Other;correct;wasp;4,682131;4;animal
J;6,148468;50;F;Other;correct;fox;5,652489;3;animal
J;6,180017;52;F;Other;correct;lemon;5,631212;5;plant
J;6,356108;56;F;Other;correct;owl;4,859812;3;animal
J;6,124683;57;F;Other;correct;dog;7,667626;3;animal
J;6,352629;61;F;Other;correct;shark;5,880533;5;animal
J;6,359574;65;F;Other;correct;apricot;3,828641;7;plant
J;6,180017;67;F;Other;correct;whale;5,298317;5;animal
J;6,324359;69;F;Other;correct;spider;4,844187;6;animal
J;6,393591;70;F;Other;correct;pear;4,727388;4;plant
J;6,113682;72;F;Other;correct;mushroom;5,537334;8;plant
J;6,317165;75;F;Other;correct;squirrel;4,70953;8;animal
J;6,285998;77;F;Other;correct;pineapple;3,988984;9;plant
J;6,177944;79;F;Other;correct;chicken;6,59987;7;animal
J;6,265301;81;F;Other;correct;goat;6,228511;4;animal
J;6,113682;83;F;Other;incorrect;crocodile;4,615121;9;animal
J;6,308098;84;F;Other;correct;horse;7,77191;5;animal
J;6,161207;89;F;Other;correct;tomato;5,545177;6;plant
J;6,287859;93;F;Other;correct;broccoli;2,833213;8;plant
J;6,586172;97;F;Other;correct;mole;4,60517;4;animal
J;6,196444;98;F;Other;correct;bat;5,918894;3;animal
J;6,098074;99;F;Other;incorrect;donkey;5,541264;6;animal
J;6,156979;100;F;Other;correct;mustard;4,442651;7;plant
J;6,327937;103;F;Other;correct;squid;3,970292;5;animal
J;6,098074;108;F;Other;correct;frog;5,129899;4;animal
J;6,098074;109;F;Other;incorrect;dolphin;4,007333;7;animal
J;6,139885;112;F;Other;incorrect;reindeer;4,043051;8;animal
J;6,040255;113;F;Other;correct;lion;6,098074;4;animal
J;6,146329;115;F;Other;correct;potato;6,461468;6;plant
J;6,289716;117;F;Other;correct;eagle;5,117994;5;animal
J;6,282267;118;F;Other;correct;blackberry;4,060443;10;plant
J;6,345636;120;F;Other;correct;camel;6,109248;5;animal
J;6,198479;121;F;Other;correct;radish;3,044522;6;plant
J;6,267201;122;F;Other;correct;beetroot;3,555348;8;plant
J;6,100319;123;F;Other;correct;apple;6,304449;5;plant
J;6,049733;124;F;Other;correct;grape;5,192957;5;plant
J;6,324359;128;F;Other;correct;cucumber;4,454347;8;plant
J;6,122493;130;F;Other;correct;cherry;4,997212;6;plant
J;6,391917;131;F;Other;correct;butterfly;5,214936;9;animal
J;6,336826;133;F;Other;correct;vulture;4,248495;7;animal
J;6,411818;134;F;Other;correct;walnut;4,49981;6;plant
J;6,566672;137;F;Other;correct;magpie;2,995732;6;animal
J;6,289716;138;F;Other;correct;strawberry;4,75359;10;plant
J;6,082219;139;F;Other;correct;banana;5,023881;6;plant
J;6,318968;141;F;Other;correct;elephant;6,063785;8;animal
J;6,703188;144;F;Other;correct;stork;3,044522;5;animal
J;6,204558;147;F;Other;correct;olive;5,587249;5;plant
J;6,086775;152;F;Other;incorrect;goose;5,267858;5;animal
J;6,280396;154;F;Other;correct;swan;4,962845;4;animal
J;6,400257;156;F;Other;correct;almond;4,204693;6;plant
J;5,976351;159;F;Other;incorrect;asparagus;3,663562;9;plant
J;6,163315;160;F;Other;incorrect;leek;3,332205;4;plant
J;6,102559;162;F;Other;correct;orange;6,378426;6;plant
J;5,910797;163;F;Other;incorrect;woodpecker;2,890372;10;animal
J;6,335054;166;F;Other;correct;tortoise;4,624973;8;animal
J;6,263398;168;F;Other;correct;lettuce;4,812184;7;plant
J;6,12905;169;F;Other;correct;cat;7,086738;3;animal
J;6,113682;170;F;Other;correct;sheep;6,577861;5;animal
J;6,317165;172;F;Other;correct;avocado;3,433987;7;plant
J;6,133398;173;F;Other;correct;kiwi;3,044522;4;plant
J;6,2106;175;F;Other;correct;melon;4,127134;5;plant
J;6,163315;176;F;Other;correct;snake;6,120297;5;animal
J;6,12905;177;F;Other;correct;moose;2,70805;5;animal
J;6,2106;178;F;Other;correct;monkey;5,783825;6;animal
J;6,077642;179;F;Other;incorrect;blueberry;2,484907;9;plant
J;6,317165;180;F;Other;incorrect;paprika;2,484907;7;plant
J;6,232448;181;F;Other;correct;peanut;4,59512;6;plant
J;6,084499;182;F;Other;correct;bee;5,700444;3;animal
K;6,011267;23;F;English;correct;owl;4,859812;3;animal
K;6,075346;24;F;English;correct;chicken;6,59987;7;animal
K;6,131226;30;F;English;correct;vulture;4,248495;7;animal
K;6,109248;32;F;English;correct;orange;6,378426;6;plant
K;6,311735;33;F;English;correct;blackberry;4,060443;10;plant
K;5,998937;34;F;English;correct;lion;6,098074;4;animal
K;6,144186;35;F;English;correct;sheep;6,577861;5;animal
K;6,100319;36;F;English;correct;wasp;4,682131;4;animal
K;6,104793;41;F;English;correct;avocado;3,433987;7;plant
K;6,070738;45;F;English;correct;radish;3,044522;6;plant
K;6,216606;48;F;English;correct;stork;3,044522;5;animal
K;6,001415;50;F;English;correct;dolphin;4,007333;7;animal
K;6,075346;51;F;English;incorrect;fox;5,652489;3;animal
K;6,204558;53;F;English;correct;grape;5,192957;5;plant
K;6,070738;54;F;English;correct;spider;4,844187;6;animal
K;6,230481;58;F;English;correct;lettuce;4,812184;7;plant
K;6,352629;63;F;English;correct;cucumber;4,454347;8;plant
K;6,297109;64;F;English;correct;bat;5,918894;3;animal
K;6,434547;74;F;English;correct;goose;5,267858;5;animal
K;6,318968;76;F;English;correct;leek;3,332205;4;plant
K;6,142037;78;F;English;correct;clove;3,663562;5;plant
K;6,12905;79;F;English;correct;elephant;6,063785;8;animal
K;6,309918;80;F;English;correct;woodpecker;2,890372;10;animal
K;5,950643;82;F;English;correct;pear;4,727388;4;plant
K;5,852202;83;F;English;incorrect;lemon;5,631212;5;plant
K;6,133398;84;F;English;correct;squirrel;4,70953;8;animal
K;6,192362;86;F;English;correct;gherkin;2,079442;7;plant
K;6,052089;87;F;English;correct;olive;5,587249;5;plant
K;6,152733;92;F;English;correct;monkey;5,783825;6;animal
K;6,111467;95;F;English;correct;cat;7,086738;3;animal
K;6,156979;98;F;English;correct;goat;6,228511;4;animal
K;5,894403;99;F;English;incorrect;potato;6,461468;6;plant
K;6,152733;100;F;English;correct;camel;6,109248;5;animal
K;6,120297;101;F;English;correct;apricot;3,828641;7;plant
K;6,169611;106;F;English;correct;swan;4,962845;4;animal
K;6,037871;108;F;English;correct;bunny;3,332205;5;animal
K;6,326149;111;F;English;correct;peanut;4,59512;6;plant
K;6,20859;112;F;English;correct;pineapple;3,988984;9;plant
K;6,224558;113;F;English;incorrect;magpie;2,995732;6;animal
K;6,426488;114;F;English;incorrect;walnut;4,49981;6;plant
K;6,352629;117;F;English;correct;paprika;2,484907;7;plant
K;6,182085;119;F;English;correct;crocodile;4,615121;9;animal
K;6,188264;120;F;English;correct;apple;6,304449;5;plant
K;6,71174;121;F;English;correct;carrot;4,976734;6;plant
K;6,196444;123;F;English;correct;moose;2,70805;5;animal
K;6,194405;124;F;English;incorrect;mouse;5,805135;5;animal
K;6,284134;127;F;English;correct;reindeer;4,043051;8;animal
K;6,137727;128;F;English;correct;eagle;5,117994;5;animal
K;6,188264;129;F;English;correct;mushroom;5,537334;8;plant
K;6,580639;130;F;English;correct;beaver;3,951244;6;animal
K;6,300786;131;F;English;correct;asparagus;3,663562;9;plant
K;6,077642;134;F;English;correct;donkey;5,541264;6;animal
K;6,329721;136;F;English;correct;frog;5,129899;4;animal
K;6,079933;137;F;English;correct;horse;7,77191;5;animal
K;6,165418;140;F;English;correct;shark;5,880533;5;animal
K;6,45677;142;F;English;correct;strawberry;4,75359;10;plant
K;6,190315;144;F;English;correct;cherry;4,997212;6;plant
K;6,35437;147;F;English;correct;bee;5,700444;3;animal
K;6,357842;150;F;English;correct;squid;3,970292;5;animal
K;6,529419;151;F;English;correct;beetroot;3,555348;8;plant
K;6,324359;152;F;English;correct;melon;4,127134;5;plant
K;6,313548;153;F;English;correct;almond;4,204693;6;plant
K;6,240276;154;F;English;correct;kiwi;3,044522;4;plant
K;5,988961;155;F;English;correct;tomato;5,545177;6;plant
K;6,033086;156;F;English;correct;pig;6,660575;3;animal
K;5,953243;157;F;English;correct;mole;4,60517;4;animal
K;6,037871;158;F;English;correct;whale;5,298317;5;animal
K;6,152733;159;F;English;correct;broccoli;2,833213;8;plant
K;6,095825;160;F;English;correct;snake;6,120297;5;animal
K;6,077642;162;F;English;correct;banana;5,023881;6;plant
K;6,077642;164;F;English;correct;eggplant;1,791759;8;plant
K;6,016157;165;F;English;correct;butterfly;5,214936;9;animal
K;6,177944;167;F;English;correct;blueberry;2,484907;9;plant
K;6,493754;168;F;English;correct;hedgehog;3,637586;8;animal
K;6,289716;173;F;English;correct;gull;4,418841;4;animal
K;6,486161;178;F;English;correct;dog;7,667626;3;animal
K;6,122493;182;F;English;correct;mustard;4,442651;7;plant
K;6,09131;183;F;English;correct;ant;5,347108;3;animal
K;6,398595;185;F;English;correct;tortoise;4,624973;8;animal
M1;6,061457;25;F;English;correct;pear;4,727388;4;plant
M1;6,107023;27;F;English;correct;beaver;3,951244;6;animal
M1;6,322565;31;F;English;correct;almond;4,204693;6;plant
M1;6,357842;32;F;English;correct;squid;3,970292;5;animal
M1;6,120297;33;F;English;correct;eagle;5,117994;5;animal
M1;6,100319;34;F;English;correct;camel;6,109248;5;animal
M1;6,063785;35;F;English;correct;magpie;2,995732;6;animal
M1;6,267201;37;F;English;correct;reindeer;4,043051;8;animal
M1;6,137727;39;F;English;correct;tomato;5,545177;6;plant
M1;6,200509;40;F;English;correct;shark;5,880533;5;animal
M1;6,214608;42;F;English;correct;olive;5,587249;5;plant
M1;6,391917;45;F;English;correct;gull;4,418841;4;animal
M1;6,095825;47;F;English;correct;monkey;5,783825;6;animal
M1;6,163315;48;F;English;correct;mouse;5,805135;5;animal
M1;6,287859;55;F;English;correct;hedgehog;3,637586;8;animal
M1;6,150603;59;F;English;correct;horse;7,77191;5;animal
M1;6,126869;60;F;English;correct;snake;6,120297;5;animal
M1;6,102559;62;F;English;correct;lion;6,098074;4;animal
M1;6,148468;63;F;English;correct;cherry;4,997212;6;plant
M1;6,066108;65;F;English;correct;swan;4,962845;4;animal
M1;6,150603;66;F;English;correct;goose;5,267858;5;animal
M1;6,040255;68;F;English;correct;mole;4,60517;4;animal
M1;6,075346;70;F;English;correct;frog;5,129899;4;animal
M1;6,113682;71;F;English;correct;apple;6,304449;5;plant
M1;6,144186;72;F;English;incorrect;crocodile;4,615121;9;animal
M1;6,291569;73;F;English;correct;elephant;6,063785;8;animal
M1;6,196444;75;F;English;correct;bat;5,918894;3;animal
M1;6,356108;79;F;English;correct;chicken;6,59987;7;animal
M1;6,156979;83;F;English;correct;mushroom;5,537334;8;plant
M1;6,011267;85;F;English;incorrect;gherkin;2,079442;7;plant
M1;6,390241;86;F;English;correct;tortoise;4,624973;8;animal
M1;6,173786;88;F;English;correct;lettuce;4,812184;7;plant
M1;6,137727;90;F;English;correct;donkey;5,541264;6;animal
M1;6,035481;93;F;English;correct;kiwi;3,044522;4;plant
M1;6,066108;96;F;English;correct;carrot;4,976734;6;plant
M1;6,347389;101;F;English;correct;stork;3,044522;5;animal
M1;6,126869;107;F;English;correct;potato;6,461468;6;plant
M1;6,244167;109;F;English;correct;spider;4,844187;6;animal
M1;6,148468;110;F;English;correct;orange;6,378426;6;plant
M1;6,263398;112;F;English;correct;leek;3,332205;4;plant
M1;6,122493;115;F;English;correct;pineapple;3,988984;9;plant
M1;6,037871;116;F;English;correct;apricot;3,828641;7;plant
M1;6,182085;119;F;English;correct;mustard;4,442651;7;plant
M1;6,309918;120;F;English;correct;walnut;4,49981;6;plant
M1;6,244167;121;F;English;correct;blueberry;2,484907;9;plant
M1;6,118097;125;F;English;correct;cucumber;4,454347;8;plant
M1;6,175867;126;F;English;correct;blackberry;4,060443;10;plant
M1;6,184149;127;F;English;correct;asparagus;3,663562;9;plant
M1;6,135565;129;F;English;correct;broccoli;2,833213;8;plant
M1;6,066108;130;F;English;correct;cat;7,086738;3;animal
M1;6,054439;133;F;English;correct;radish;3,044522;6;plant
M1;7,05445;135;F;English;correct;banana;5,023881;6;plant
M1;6,244167;136;F;English;correct;butterfly;5,214936;9;animal
M1;6,077642;137;F;English;correct;beetroot;3,555348;8;plant
M1;6,113682;138;F;English;correct;squirrel;4,70953;8;animal
M1;6,139885;140;F;English;correct;goat;6,228511;4;animal
M1;6,139885;143;F;English;correct;lemon;5,631212;5;plant
M1;6,280396;144;F;English;correct;woodpecker;2,890372;10;animal
M1;6,089045;145;F;English;correct;owl;4,859812;3;animal
M1;6,077642;146;F;English;correct;sheep;6,577861;5;animal
M1;6,033086;147;F;English;correct;fox;5,652489;3;animal
M1;5,940171;148;F;English;correct;peanut;4,59512;6;plant
M1;6,326149;149;F;English;correct;vulture;4,248495;7;animal
M1;6,056784;151;F;English;correct;bunny;3,332205;5;animal
M1;6,309918;156;F;English;correct;clove;3,663562;5;plant
M1;6,084499;158;F;English;incorrect;eggplant;1,791759;8;plant
M1;6,173786;165;F;English;correct;pig;6,660575;3;animal
M1;6,156979;168;F;English;correct;moose;2,70805;5;animal
M1;6,175867;169;F;English;correct;whale;5,298317;5;animal
M1;6,070738;170;F;English;correct;bee;5,700444;3;animal
M1;6,056784;171;F;English;correct;ant;5,347108;3;animal
M1;6,293419;173;F;English;correct;paprika;2,484907;7;plant
M1;6,122493;174;F;English;correct;avocado;3,433987;7;plant
M1;5,998937;175;F;English;correct;dog;7,667626;3;animal
M1;6,131226;178;F;English;correct;grape;5,192957;5;plant
M1;6,154858;179;F;English;correct;strawberry;4,75359;10;plant
M1;6,161207;180;F;English;correct;dolphin;4,007333;7;animal
M1;6,302619;183;F;English;correct;melon;4,127134;5;plant
M1;6,329721;184;F;English;correct;wasp;4,682131;4;animal
M2;6,848005;23;F;Other;incorrect;paprika;2,484907;7;plant
M2;6,575076;25;F;Other;correct;mustard;4,442651;7;plant
M2;6,505784;26;F;Other;correct;potato;6,461468;6;plant
M2;6,444131;29;F;Other;correct;grape;5,192957;5;plant
M2;6,444131;30;F;Other;correct;donkey;5,541264;6;animal
M2;6,364751;31;F;Other;correct;kiwi;3,044522;4;plant
M2;6,828712;38;F;Other;correct;crocodile;4,615121;9;animal
M2;6,727432;39;F;Other;correct;eggplant;1,791759;8;plant
M2;6,413459;44;F;Other;correct;clove;3,663562;5;plant
M2;6,598509;45;F;Other;correct;bat;5,918894;3;animal
M2;6,388561;47;F;Other;correct;chicken;6,59987;7;animal
M2;6,475433;48;F;Other;correct;cucumber;4,454347;8;plant
M2;6,429719;49;F;Other;correct;owl;4,859812;3;animal
M2;6,280396;50;F;Other;correct;lettuce;4,812184;7;plant
M2;6,361302;51;F;Other;correct;sheep;6,577861;5;animal
M2;6,782192;54;F;Other;correct;radish;3,044522;6;plant
M2;7,019297;55;F;Other;correct;wasp;4,682131;4;animal
M2;6,698268;57;F;Other;correct;avocado;3,433987;7;plant
M2;6,284134;58;F;Other;correct;frog;5,129899;4;animal
M2;6,603944;59;F;Other;correct;moose;2,70805;5;animal
M2;6,43935;62;F;Other;correct;tomato;5,545177;6;plant
M2;7,002156;64;F;Other;correct;reindeer;4,043051;8;animal
M2;6,768493;66;F;Other;correct;elephant;6,063785;8;animal
M2;6,453625;70;F;Other;correct;fox;5,652489;3;animal
M2;6,476972;71;F;Other;correct;spider;4,844187;6;animal
M2;6,282267;73;F;Other;correct;mouse;5,805135;5;animal
M2;6,53814;75;F;Other;correct;broccoli;2,833213;8;plant
M2;6,242223;76;F;Other;correct;pig;6,660575;3;animal
M2;6,280396;77;F;Other;correct;carrot;4,976734;6;plant
M2;6,511745;78;F;Other;correct;blueberry;2,484907;9;plant
M2;6,309918;80;F;Other;correct;olive;5,587249;5;plant
M2;6,674561;84;F;Other;correct;walnut;4,49981;6;plant
M2;6,380123;88;F;Other;correct;dog;7,667626;3;animal
M2;6,313548;89;F;Other;correct;pear;4,727388;4;plant
M2;6,257668;90;F;Other;correct;eagle;5,117994;5;animal
M2;6,71174;94;F;Other;incorrect;tortoise;4,624973;8;animal
M2;6,336826;95;F;Other;correct;bee;5,700444;3;animal
M2;6,542472;103;F;Other;correct;lemon;5,631212;5;plant
M2;7,443664;105;F;Other;correct;leek;3,332205;4;plant
M2;7,40367;106;F;Other;correct;hedgehog;3,637586;8;animal
M2;6,680855;107;F;Other;correct;asparagus;3,663562;9;plant
M2;7,314553;111;F;Other;correct;squirrel;4,70953;8;animal
M2;6,648985;113;F;Other;correct;whale;5,298317;5;animal
M2;6,864848;114;F;Other;correct;almond;4,204693;6;plant
M2;6,769642;115;F;Other;correct;beetroot;3,555348;8;plant
M2;6,272877;117;F;Other;correct;ant;5,347108;3;animal
M2;6,472346;119;F;Other;correct;swan;4,962845;4;animal
M2;6,23637;120;F;Other;correct;orange;6,378426;6;plant
M2;6,298949;122;F;Other;correct;snake;6,120297;5;animal
M2;6,444131;123;F;Other;correct;shark;5,880533;5;animal
M2;6,297109;126;F;Other;correct;camel;6,109248;5;animal
M2;6,2186;127;F;Other;correct;cherry;4,997212;6;plant
M2;6,257668;128;F;Other;correct;monkey;5,783825;6;animal
M2;6,09357;129;F;Other;correct;goose;5,267858;5;animal
M2;6,340359;130;F;Other;correct;melon;4,127134;5;plant
M2;6,553933;131;F;Other;correct;stork;3,044522;5;animal
M2;6,862758;132;F;Other;incorrect;gull;4,418841;4;animal
M2;6,553933;136;F;Other;incorrect;gherkin;2,079442;7;plant
M2;6,421622;140;F;Other;correct;horse;7,77191;5;animal
M2;6,200509;154;F;Other;correct;banana;5,023881;6;plant
M2;6,380123;155;F;Other;correct;butterfly;5,214936;9;animal
M2;6,679599;157;F;Other;correct;bunny;3,332205;5;animal
M2;6,390241;158;F;Other;correct;apple;6,304449;5;plant
M2;6,44572;159;F;Other;correct;strawberry;4,75359;10;plant
M2;6,415097;160;F;Other;correct;blackberry;4,060443;10;plant
M2;6,322565;161;F;Other;correct;mushroom;5,537334;8;plant
M2;6,520621;162;F;Other;correct;goat;6,228511;4;animal
M2;6,39693;164;F;Other;correct;squid;3,970292;5;animal
M2;6,388561;166;F;Other;correct;beaver;3,951244;6;animal
M2;6,278521;168;F;Other;correct;cat;7,086738;3;animal
M2;6,293419;170;F;Other;correct;mole;4,60517;4;animal
M2;6,562444;172;F;Other;correct;apricot;3,828641;7;plant
M2;6,565265;173;F;Other;correct;dolphin;4,007333;7;animal
M2;7,113142;174;F;Other;correct;magpie;2,995732;6;animal
M2;7,07327;179;F;Other;correct;vulture;4,248495;7;animal
M2;6,431331;181;F;Other;correct;peanut;4,59512;6;plant
M2;6,842683;182;F;Other;correct;woodpecker;2,890372;10;animal
M2;6,285998;183;F;Other;correct;pineapple;3,988984;9;plant
M2;6,452049;185;F;Other;correct;lion;6,098074;4;animal
P;7,005789;23;F;Other;incorrect;moose;2,70805;5;animal
P;6,403574;25;F;Other;correct;pineapple;3,988984;9;plant
P;6,466145;28;F;Other;correct;fox;5,652489;3;animal
P;6,44254;29;F;Other;correct;gull;4,418841;4;animal
P;6,398595;31;F;Other;correct;whale;5,298317;5;animal
P;6,204558;32;F;Other;correct;snake;6,120297;5;animal
P;6,33328;33;F;Other;correct;crocodile;4,615121;9;animal
P;6,658011;40;F;Other;correct;squirrel;4,70953;8;animal
P;6,380123;43;F;Other;correct;mustard;4,442651;7;plant
P;6,335054;47;F;Other;correct;eagle;5,117994;5;animal
P;6,302619;48;F;Other;correct;elephant;6,063785;8;animal
P;6,152733;49;F;Other;correct;apple;6,304449;5;plant
P;6,259581;50;F;Other;correct;cat;7,086738;3;animal
P;6,249975;51;F;Other;correct;almond;4,204693;6;plant
P;6,278521;54;F;Other;correct;lion;6,098074;4;animal
P;6,532334;58;F;Other;correct;cherry;4,997212;6;plant
P;6,224558;59;F;Other;correct;goat;6,228511;4;animal
P;6,795706;60;F;Other;correct;hedgehog;3,637586;8;animal
P;6,2186;61;F;Other;correct;sheep;6,577861;5;animal
P;6,466145;65;F;Other;correct;beetroot;3,555348;8;plant
P;6,327937;66;F;Other;correct;kiwi;3,044522;4;plant
P;6,758095;68;F;Other;correct;vulture;4,248495;7;animal
P;6,388561;71;F;Other;correct;pig;6,660575;3;animal
P;6,467699;73;F;Other;correct;clove;3,663562;5;plant
P;6,411818;74;F;Other;correct;avocado;3,433987;7;plant
P;6,347389;75;F;Other;correct;blackberry;4,060443;10;plant
P;6,369901;79;F;Other;correct;horse;7,77191;5;animal
P;6,624065;82;F;Other;correct;pear;4,727388;4;plant
P;6,43615;83;F;Other;correct;owl;4,859812;3;animal
P;6,202536;84;F;Other;correct;mole;4,60517;4;animal
P;6,304449;85;F;Other;correct;goose;5,267858;5;animal
P;6,423247;87;F;Other;correct;donkey;5,541264;6;animal
P;6,761573;88;F;Other;correct;bunny;3,332205;5;animal
P;6,867974;89;F;Other;correct;gherkin;2,079442;7;plant
P;6,49224;90;F;Other;correct;spider;4,844187;6;animal
P;6,55108;93;F;Other;correct;tortoise;4,624973;8;animal
P;6,444131;97;F;Other;correct;shark;5,880533;5;animal
P;6,282267;98;F;Other;correct;melon;4,127134;5;plant
P;6,447306;99;F;Other;correct;broccoli;2,833213;8;plant
P;6,352629;101;F;Other;correct;carrot;4,976734;6;plant
P;6,642487;102;F;Other;correct;leek;3,332205;4;plant
P;7,085901;105;F;Other;correct;magpie;2,995732;6;animal
P;6,437752;108;F;Other;correct;mushroom;5,537334;8;plant
P;6,259581;109;F;Other;correct;orange;6,378426;6;plant
P;6,326149;110;F;Other;correct;swan;4,962845;4;animal
P;6,270988;111;F;Other;correct;apricot;3,828641;7;plant
P;6,326149;112;F;Other;correct;paprika;2,484907;7;plant
P;6,774224;114;F;Other;correct;reindeer;4,043051;8;animal
P;6,278521;115;F;Other;correct;ant;5,347108;3;animal
P;6,276643;117;F;Other;correct;strawberry;4,75359;10;plant
P;6,317165;121;F;Other;correct;dog;7,667626;3;animal
P;6,285998;123;F;Other;correct;frog;5,129899;4;animal
P;6,51323;128;F;Other;correct;olive;5,587249;5;plant
P;6,359574;129;F;Other;correct;wasp;4,682131;4;animal
P;6,498282;131;F;Other;correct;butterfly;5,214936;9;animal
P;6,297109;132;F;Other;correct;lettuce;4,812184;7;plant
P;6,171701;134;F;Other;correct;potato;6,461468;6;plant
P;6,177944;135;F;Other;correct;peanut;4,59512;6;plant
P;6,295266;137;F;Other;correct;banana;5,023881;6;plant
P;6,428105;138;F;Other;correct;bee;5,700444;3;animal
P;6,562444;141;F;Other;correct;blueberry;2,484907;9;plant
P;6,327937;142;F;Other;correct;tomato;5,545177;6;plant
P;6,824374;146;F;Other;correct;walnut;4,49981;6;plant
P;6,364751;147;F;Other;correct;lemon;5,631212;5;plant
P;6,937314;149;F;Other;correct;stork;3,044522;5;animal
P;6,507278;153;F;Other;correct;mouse;5,805135;5;animal
P;6,608001;156;F;Other;correct;asparagus;3,663562;9;plant
P;6,483107;160;F;Other;correct;beaver;3,951244;6;animal
P;6,338594;161;F;Other;correct;chicken;6,59987;7;animal
P;6,318968;162;F;Other;correct;bat;5,918894;3;animal
P;6,364751;164;F;Other;correct;eggplant;1,791759;8;plant
P;6,461468;165;F;Other;correct;squid;3,970292;5;animal
P;6,317165;167;F;Other;correct;monkey;5,783825;6;animal
P;6,452049;168;F;Other;correct;dolphin;4,007333;7;animal
P;6,532334;170;F;Other;correct;woodpecker;2,890372;10;animal
P;6,508769;171;F;Other;correct;cucumber;4,454347;8;plant
P;6,240276;173;F;Other;correct;radish;3,044522;6;plant
P;6,154858;175;F;Other;correct;grape;5,192957;5;plant
P;6,20859;178;F;Other;correct;camel;6,109248;5;animal
R1;6,194405;25;F;English;correct;bee;5,700444;3;animal
R1;6,180017;30;F;English;correct;ant;5,347108;3;animal
R1;6,40688;31;F;English;correct;paprika;2,484907;7;plant
R1;6,276643;32;F;English;correct;monkey;5,783825;6;animal
R1;6,163315;33;F;English;correct;goose;5,267858;5;animal
R1;6,336826;40;F;English;correct;avocado;3,433987;7;plant
R1;6,257668;43;F;English;correct;camel;6,109248;5;animal
R1;6,198479;44;F;English;correct;bunny;3,332205;5;animal
R1;6,133398;45;F;English;correct;spider;4,844187;6;animal
R1;6,180017;46;F;English;correct;fox;5,652489;3;animal
R1;6,161207;47;F;English;correct;blackberry;4,060443;10;plant
R1;5,981414;48;F;English;correct;almond;4,204693;6;plant
R1;6,177944;49;F;English;correct;crocodile;4,615121;9;animal
R1;6,234411;51;F;English;correct;owl;4,859812;3;animal
R1;6,390241;55;F;English;correct;swan;4,962845;4;animal
R1;6,274762;56;F;English;correct;carrot;4,976734;6;plant
R1;6,198479;58;F;English;incorrect;goat;6,228511;4;animal
R1;6,202536;63;F;English;correct;mustard;4,442651;7;plant
R1;6,234411;68;F;English;correct;banana;5,023881;6;plant
R1;6,276643;70;F;English;correct;apricot;3,828641;7;plant
R1;6,115892;71;F;English;incorrect;hedgehog;3,637586;8;animal
R1;6,313548;72;F;English;correct;clove;3,663562;5;plant
R1;6,282267;76;F;English;correct;asparagus;3,663562;9;plant
R1;6,650279;77;F;English;correct;beaver;3,951244;6;animal
R1;6,33328;80;F;English;correct;reindeer;4,043051;8;animal
R1;6,391917;84;F;English;correct;lion;6,098074;4;animal
R1;6,144186;85;F;English;correct;chicken;6,59987;7;animal
R1;6,244167;88;F;English;correct;gherkin;2,079442;7;plant
R1;6,212606;89;F;English;correct;pineapple;3,988984;9;plant
R1;6,514713;93;F;English;correct;magpie;2,995732;6;animal
R1;6,50279;97;F;English;incorrect;gull;4,418841;4;animal
R1;6,289716;100;F;English;correct;cucumber;4,454347;8;plant
R1;6,408529;101;F;English;correct;squirrel;4,70953;8;animal
R1;6,293419;102;F;English;correct;cherry;4,997212;6;plant
R1;6,280396;106;F;English;correct;leek;3,332205;4;plant
R1;6,278521;109;F;English;correct;apple;6,304449;5;plant
R1;6,131226;111;F;English;correct;lettuce;4,812184;7;plant
R1;7,425358;116;F;English;correct;beetroot;3,555348;8;plant
R1;6,44572;118;F;English;correct;potato;6,461468;6;plant
R1;6,633318;123;F;English;correct;vulture;4,248495;7;animal
R1;6,93537;125;F;English;correct;pear;4,727388;4;plant
R1;6,39693;126;F;English;correct;donkey;5,541264;6;animal
R1;6,6995;127;F;English;correct;mole;4,60517;4;animal
R1;6,298949;129;F;English;correct;wasp;4,682131;4;animal
R1;6,315358;130;F;English;correct;walnut;4,49981;6;plant
R1;6,272877;132;F;English;correct;grape;5,192957;5;plant
R1;6,200509;133;F;English;correct;tomato;5,545177;6;plant
R1;6,322565;135;F;English;correct;butterfly;5,214936;9;animal
R1;6,263398;136;F;English;correct;radish;3,044522;6;plant
R1;6,232448;137;F;English;correct;melon;4,127134;5;plant
R1;6,368187;139;F;English;correct;dog;7,667626;3;animal
R1;6,171701;144;F;English;correct;broccoli;2,833213;8;plant
R1;6,562444;145;F;English;correct;bat;5,918894;3;animal
R1;6,335054;146;F;English;correct;pig;6,660575;3;animal
R1;6,228511;148;F;English;correct;mouse;5,805135;5;animal
R1;6,144186;149;F;English;correct;eagle;5,117994;5;animal
R1;6,226537;150;F;English;correct;shark;5,880533;5;animal
R1;6,265301;151;F;English;correct;tortoise;4,624973;8;animal
R1;6,361302;152;F;English;correct;snake;6,120297;5;animal
R1;6,514713;154;F;English;incorrect;stork;3,044522;5;animal
R1;6,297109;155;F;English;correct;squid;3,970292;5;animal
R1;6,280396;157;F;English;correct;horse;7,77191;5;animal
R1;6,52503;158;F;English;correct;cat;7,086738;3;animal
R1;6,173786;159;F;English;correct;peanut;4,59512;6;plant
R1;6,291569;160;F;English;correct;olive;5,587249;5;plant
R1;6,315358;161;F;English;correct;strawberry;4,75359;10;plant
R1;6,287859;162;F;English;correct;whale;5,298317;5;animal
R1;6,165418;165;F;English;correct;sheep;6,577861;5;animal
R1;6,300786;167;F;English;correct;lemon;5,631212;5;plant
R1;6,09131;168;F;English;correct;moose;2,70805;5;animal
R1;6,135565;169;F;English;incorrect;woodpecker;2,890372;10;animal
R1;6,274762;171;F;English;correct;kiwi;3,044522;4;plant
R1;6,302619;174;F;English;correct;eggplant;1,791759;8;plant
R1;6,490724;175;F;English;correct;orange;6,378426;6;plant
R1;6,212606;177;F;English;correct;mushroom;5,537334;8;plant
R1;6,200509;179;F;English;correct;elephant;6,063785;8;animal
R1;6,171701;180;F;English;correct;blueberry;2,484907;9;plant
R1;6,025866;181;F;English;correct;frog;5,129899;4;animal
R1;6,263398;183;F;English;correct;dolphin;4,007333;7;animal
R2;6,410175;24;M;English;correct;whale;5,298317;5;animal
R2;6,423247;25;M;English;correct;banana;5,023881;6;plant
R2;6,510258;26;M;English;correct;woodpecker;2,890372;10;animal
R2;6,349139;27;M;English;correct;shark;5,880533;5;animal
R2;6,51323;29;M;English;correct;hedgehog;3,637586;8;animal
R2;6,398595;30;M;English;correct;snake;6,120297;5;animal
R2;6,410175;31;M;English;correct;strawberry;4,75359;10;plant
R2;6,359574;32;M;English;correct;leek;3,332205;4;plant
R2;6,302619;34;M;English;correct;lemon;5,631212;5;plant
R2;6,669498;36;M;English;correct;camel;6,109248;5;animal
R2;6,447306;37;M;English;correct;dolphin;4,007333;7;animal
R2;6,618739;41;M;English;correct;crocodile;4,615121;9;animal
R2;6,352629;42;M;English;correct;cat;7,086738;3;animal
R2;6,54103;43;M;English;correct;reindeer;4,043051;8;animal
R2;6,287859;44;M;English;correct;donkey;5,541264;6;animal
R2;6,390241;46;M;English;correct;mushroom;5,537334;8;plant
R2;6,405228;47;M;English;correct;elephant;6,063785;8;animal
R2;6,356108;48;M;English;correct;chicken;6,59987;7;animal
R2;6,311735;51;M;English;correct;apricot;3,828641;7;plant
R2;6,315358;54;M;English;correct;bat;5,918894;3;animal
R2;6,393591;57;M;English;correct;beetroot;3,555348;8;plant
R2;6,55108;59;M;English;correct;monkey;5,783825;6;animal
R2;6,582025;62;M;English;correct;swan;4,962845;4;animal
R2;6,642487;63;M;English;correct;orange;6,378426;6;plant
R2;6,927558;66;M;English;correct;blueberry;2,484907;9;plant
R2;6,405228;68;M;English;correct;pig;6,660575;3;animal
R2;6,666957;70;M;English;correct;melon;4,127134;5;plant
R2;6,646391;72;M;English;correct;horse;7,77191;5;animal
R2;6,591674;73;M;English;correct;kiwi;3,044522;4;plant
R2;6,50129;74;M;English;correct;tomato;5,545177;6;plant
R2;6,536692;75;M;English;correct;carrot;4,976734;6;plant
R2;6,434547;76;M;English;correct;sheep;6,577861;5;animal
R2;6,50129;77;M;English;correct;wasp;4,682131;4;animal
R2;6,347389;78;M;English;correct;mustard;4,442651;7;plant
R2;6,461468;87;M;English;correct;moose;2,70805;5;animal
R2;6,565265;94;M;English;correct;spider;4,844187;6;animal
R2;6,416732;97;M;English;correct;radish;3,044522;6;plant
R2;6,352629;98;M;English;correct;cherry;4,997212;6;plant
R2;6,532334;102;M;English;correct;squid;3,970292;5;animal
R2;6,584791;106;M;English;correct;tortoise;4,624973;8;animal
R2;6,398595;110;M;English;correct;pineapple;3,988984;9;plant
R2;6,272877;111;M;English;correct;bee;5,700444;3;animal
R2;6,584791;113;M;English;correct;peanut;4,59512;6;plant
R2;6,385194;114;M;English;correct;ant;5,347108;3;animal
R2;6,408529;115;M;English;correct;pear;4,727388;4;plant
R2;6,72022;117;M;English;correct;walnut;4,49981;6;plant
R2;6,690842;118;M;English;correct;paprika;2,484907;7;plant
R2;6,505784;121;M;English;correct;potato;6,461468;6;plant
R2;6,424869;123;M;English;correct;lion;6,098074;4;animal
R2;6,369901;126;M;English;correct;fox;5,652489;3;animal
R2;6,49224;127;M;English;correct;goat;6,228511;4;animal
R2;6,822197;128;M;English;correct;clove;3,663562;5;plant
R2;6,467699;133;M;English;correct;bunny;3,332205;5;animal
R2;6,238325;134;M;English;correct;olive;5,587249;5;plant
R2;6,378426;136;M;English;correct;owl;4,859812;3;animal
R2;6,461468;137;M;English;correct;squirrel;4,70953;8;animal
R2;6,552508;138;M;English;correct;gull;4,418841;4;animal
R2;6,65544;140;M;English;correct;gherkin;2,079442;7;plant
R2;6,300786;141;M;English;correct;dog;7,667626;3;animal
R2;6,903747;142;M;English;correct;lettuce;4,812184;7;plant
R2;6,605298;143;M;English;correct;vulture;4,248495;7;animal
R2;6,447306;145;M;English;correct;eagle;5,117994;5;animal
R2;6,577861;148;M;English;correct;cucumber;4,454347;8;plant
R2;6,388561;150;M;English;correct;broccoli;2,833213;8;plant
R2;6,39693;152;M;English;correct;beaver;3,951244;6;animal
R2;6,401917;153;M;English;correct;grape;5,192957;5;plant
R2;6,380123;158;M;English;correct;frog;5,129899;4;animal
R2;6,584791;160;M;English;correct;stork;3,044522;5;animal
R2;6,419995;164;M;English;correct;magpie;2,995732;6;animal
R2;6,475433;167;M;English;correct;butterfly;5,214936;9;animal
R2;6,322565;168;M;English;correct;mole;4,60517;4;animal
R2;6,632002;172;M;English;correct;blackberry;4,060443;10;plant
R2;6,284134;173;M;English;correct;eggplant;1,791759;8;plant
R2;6,561031;175;M;English;correct;asparagus;3,663562;9;plant
R2;6,47851;176;M;English;correct;almond;4,204693;6;plant
R2;6,350886;179;M;English;correct;mouse;5,805135;5;animal
R2;6,142037;180;M;English;correct;apple;6,304449;5;plant
R2;6,476972;181;M;English;correct;avocado;3,433987;7;plant
R2;6,331502;184;M;English;correct;goose;5,267858;5;animal
R3;6,799056;25;M;English;correct;camel;6,109248;5;animal
R3;6,345636;26;M;English;correct;lemon;5,631212;5;plant
R3;6,265301;29;M;English;correct;hedgehog;3,637586;8;animal
R3;6,047372;30;M;English;correct;dog;7,667626;3;animal
R3;6,302619;33;M;English;correct;whale;5,298317;5;animal
R3;6,693324;37;M;English;correct;tortoise;4,624973;8;animal
R3;6,693324;43;M;English;correct;mole;4,60517;4;animal
R3;6,835185;44;M;English;correct;vulture;4,248495;7;animal
R3;6,329721;45;M;English;correct;almond;4,204693;6;plant
R3;6,293419;46;M;English;correct;mushroom;5,537334;8;plant
R3;6,345636;47;M;English;correct;lion;6,098074;4;animal
R3;6,329721;48;M;English;correct;reindeer;4,043051;8;animal
R3;6,126869;49;M;English;correct;bunny;3,332205;5;animal
R3;6,473891;51;M;English;correct;squid;3,970292;5;animal
R3;6,635947;52;M;English;correct;mustard;4,442651;7;plant
R3;6,188264;53;M;English;correct;eagle;5,117994;5;animal
R3;6,234411;54;M;English;correct;spider;4,844187;6;animal
R3;6,313548;55;M;English;correct;peanut;4,59512;6;plant
R3;6,212606;56;M;English;correct;goat;6,228511;4;animal
R3;6,591674;60;M;English;correct;olive;5,587249;5;plant
R3;6,687109;62;M;English;correct;butterfly;5,214936;9;animal
R3;6,871091;64;M;English;correct;blueberry;2,484907;9;plant
R3;6,614726;66;M;English;correct;clove;3,663562;5;plant
R3;6,582025;69;M;English;correct;blackberry;4,060443;10;plant
R3;6,533789;70;M;English;correct;radish;3,044522;6;plant
R3;6,49224;74;M;English;correct;donkey;5,541264;6;animal
R3;6,400257;79;M;English;correct;lettuce;4,812184;7;plant
R3;6,393591;80;M;English;correct;avocado;3,433987;7;plant
R3;6,472346;81;M;English;correct;sheep;6,577861;5;animal
R3;6,150603;82;M;English;correct;tomato;5,545177;6;plant
R3;6,626718;83;M;English;correct;asparagus;3,663562;9;plant
R3;6,2186;84;M;English;correct;leek;3,332205;4;plant
R3;6,472346;86;M;English;correct;owl;4,859812;3;animal
R3;6,347389;87;M;English;correct;apricot;3,828641;7;plant
R3;6,480045;90;M;English;correct;frog;5,129899;4;animal
R3;6,347389;93;M;English;correct;bee;5,700444;3;animal
R3;6,884487;97;M;English;correct;crocodile;4,615121;9;animal
R3;6,481577;99;M;English;correct;carrot;4,976734;6;plant
R3;6,335054;100;M;English;correct;cherry;4,997212;6;plant
R3;6,202536;101;M;English;correct;mouse;5,805135;5;animal
R3;6,375025;106;M;English;correct;cat;7,086738;3;animal
R3;6,381816;107;M;English;correct;beaver;3,951244;6;animal
R3;6,175867;108;M;English;correct;bat;5,918894;3;animal
R3;6,543912;111;M;English;correct;melon;4,127134;5;plant
R3;6,180017;113;M;English;correct;kiwi;3,044522;4;plant
R3;6,569481;115;M;English;correct;moose;2,70805;5;animal
R3;6,331502;117;M;English;correct;apple;6,304449;5;plant
R3;6,059123;119;M;English;correct;orange;6,378426;6;plant
R3;6,150603;120;M;English;correct;monkey;5,783825;6;animal
R3;6,356108;121;M;English;incorrect;stork;3,044522;5;animal
R3;6,584791;124;M;English;correct;wasp;4,682131;4;animal
R3;6,57368;128;M;English;correct;goose;5,267858;5;animal
R3;6,274762;133;M;English;correct;pear;4,727388;4;plant
R3;6,375025;134;M;English;correct;elephant;6,063785;8;animal
R3;6,583409;136;M;English;correct;potato;6,461468;6;plant
R3;6,498282;137;M;English;correct;gherkin;2,079442;7;plant
R3;6,461468;138;M;English;correct;snake;6,120297;5;animal
R3;6,376727;139;M;English;correct;pineapple;3,988984;9;plant
R3;6,46925;143;M;English;correct;swan;4,962845;4;animal
R3;6,263398;145;M;English;correct;chicken;6,59987;7;animal
R3;6,163315;146;M;English;correct;pig;6,660575;3;animal
R3;6,184149;148;M;English;correct;horse;7,77191;5;animal
R3;6,40688;149;M;English;correct;gull;4,418841;4;animal
R3;6,175867;150;M;English;correct;banana;5,023881;6;plant
R3;6,226537;152;M;English;correct;eggplant;1,791759;8;plant
R3;6,276643;153;M;English;correct;woodpecker;2,890372;10;animal
R3;6,464588;155;M;English;correct;broccoli;2,833213;8;plant
R3;6,139885;157;M;English;correct;shark;5,880533;5;animal
R3;6,196444;162;M;English;correct;grape;5,192957;5;plant
R3;6,660575;168;M;English;correct;cucumber;4,454347;8;plant
R3;6,447306;169;M;English;correct;paprika;2,484907;7;plant
R3;6,393591;171;M;English;correct;magpie;2,995732;6;animal
R3;6,388561;175;M;English;correct;beetroot;3,555348;8;plant
R3;6,165418;179;M;English;incorrect;dolphin;4,007333;7;animal
R3;6,481577;180;M;English;correct;walnut;4,49981;6;plant
R3;6,253829;181;M;English;correct;strawberry;4,75359;10;plant
R3;6,267201;182;M;English;correct;fox;5,652489;3;animal
R3;6,34388;184;M;English;correct;squirrel;4,70953;8;animal
R3;6,167516;185;M;English;correct;ant;5,347108;3;animal
S;6,118097;24;F;English;correct;bee;5,700444;3;animal
S;6,161207;25;F;English;correct;apple;6,304449;5;plant
S;6,25575;26;F;English;correct;moose;2,70805;5;animal
S;6,230481;29;F;English;correct;beaver;3,951244;6;animal
S;6,234411;31;F;English;correct;eggplant;1,791759;8;plant
S;6,285998;32;F;English;correct;tortoise;4,624973;8;animal
S;6,23637;34;F;English;correct;blackberry;4,060443;10;plant
S;6,142037;36;F;English;correct;strawberry;4,75359;10;plant
S;6,224558;43;F;English;correct;spider;4,844187;6;animal
S;6,329721;44;F;English;correct;tomato;5,545177;6;plant
S;6,663133;45;F;English;correct;mouse;5,805135;5;animal
S;6,357842;48;F;English;correct;mole;4,60517;4;animal
S;6,605298;53;F;English;correct;squirrel;4,70953;8;animal
S;6,418365;56;F;English;correct;sheep;6,577861;5;animal
S;6,921658;57;F;English;correct;magpie;2,995732;6;animal
S;6,973543;58;F;English;correct;vulture;4,248495;7;animal
S;6,190315;59;F;English;correct;carrot;4,976734;6;plant
S;6,265301;60;F;English;correct;leek;3,332205;4;plant
S;6,452049;61;F;English;correct;blueberry;2,484907;9;plant
S;6,282267;62;F;English;correct;broccoli;2,833213;8;plant
S;6,869014;63;F;English;correct;asparagus;3,663562;9;plant
S;6,291569;64;F;English;correct;monkey;5,783825;6;animal
S;6,926577;66;F;English;correct;squid;3,970292;5;animal
S;6,508769;68;F;English;correct;eagle;5,117994;5;animal
S;6,543912;71;F;English;correct;clove;3,663562;5;plant
S;6,383507;74;F;English;correct;apricot;3,828641;7;plant
S;7,142037;77;F;English;correct;crocodile;4,615121;9;animal
S;6,638568;78;F;English;correct;paprika;2,484907;7;plant
S;6,324359;81;F;English;correct;peanut;4,59512;6;plant
S;6,43615;86;F;English;correct;horse;7,77191;5;animal
S;6,385194;87;F;English;correct;banana;5,023881;6;plant
S;6,472346;88;F;English;correct;pineapple;3,988984;9;plant
S;6,347389;92;F;English;correct;kiwi;3,044522;4;plant
S;6,621406;94;F;English;correct;butterfly;5,214936;9;animal
S;6,238325;95;F;English;correct;orange;6,378426;6;plant
S;6,261492;96;F;English;correct;olive;5,587249;5;plant
S;6,309918;97;F;English;correct;cucumber;4,454347;8;plant
S;6,315358;99;F;English;correct;bat;5,918894;3;animal
S;6,398595;101;F;English;correct;dog;7,667626;3;animal
S;6,665684;108;F;English;correct;mushroom;5,537334;8;plant
S;6,423247;109;F;English;correct;mustard;4,442651;7;plant
S;6,458338;117;F;English;correct;shark;5,880533;5;animal
S;6,535241;118;F;English;correct;dolphin;4,007333;7;animal
S;6,315358;119;F;English;correct;fox;5,652489;3;animal
S;6,308098;123;F;English;correct;goose;5,267858;5;animal
S;6,190315;126;F;English;correct;ant;5,347108;3;animal
S;6,388561;127;F;English;correct;stork;3,044522;5;animal
S;6,347389;130;F;English;correct;wasp;4,682131;4;animal
S;6,240276;133;F;English;correct;cherry;4,997212;6;plant
S;6,228511;135;F;English;correct;lettuce;4,812184;7;plant
S;6,169611;136;F;English;correct;snake;6,120297;5;animal
S;6,318968;137;F;English;correct;radish;3,044522;6;plant
S;6,142037;139;F;English;correct;camel;6,109248;5;animal
S;6,661855;141;F;English;correct;avocado;3,433987;7;plant
S;6,375025;143;F;English;correct;whale;5,298317;5;animal
S;6,109248;144;F;English;correct;lion;6,098074;4;animal
S;6,359574;152;F;English;correct;owl;4,859812;3;animal
S;6,388561;153;F;English;correct;pig;6,660575;3;animal
S;6,192362;155;F;English;correct;woodpecker;2,890372;10;animal
S;6,198479;158;F;English;incorrect;reindeer;4,043051;8;animal
S;6,378426;159;F;English;correct;lemon;5,631212;5;plant
S;6,280396;160;F;English;correct;donkey;5,541264;6;animal
S;6,148468;162;F;English;correct;swan;4,962845;4;animal
S;6,416732;163;F;English;correct;walnut;4,49981;6;plant
S;6,356108;164;F;English;correct;goat;6,228511;4;animal
S;6,291569;165;F;English;correct;almond;4,204693;6;plant
S;6,356108;166;F;English;correct;pear;4,727388;4;plant
S;6,089045;167;F;English;correct;frog;5,129899;4;animal
S;6,188264;169;F;English;correct;beetroot;3,555348;8;plant
S;6,135565;170;F;English;correct;elephant;6,063785;8;animal
S;6,025866;172;F;English;correct;chicken;6,59987;7;animal
S;6,582025;174;F;English;correct;bunny;3,332205;5;animal
S;6,120297;176;F;English;correct;potato;6,461468;6;plant
S;6,400257;177;F;English;correct;gull;4,418841;4;animal
S;6,2186;179;F;English;correct;grape;5,192957;5;plant
S;6,429719;181;F;English;correct;hedgehog;3,637586;8;animal
S;6,318968;182;F;English;correct;cat;7,086738;3;animal
S;6,612041;183;F;English;correct;gherkin;2,079442;7;plant
S;6,391917;184;F;English;correct;melon;4,127134;5;plant
T1;6,204558;24;F;English;correct;chicken;6,59987;7;animal
T1;6,240276;25;F;English;correct;cat;7,086738;3;animal
T1;6,375025;26;F;English;correct;avocado;3,433987;7;plant
T1;6,715383;28;F;English;correct;tomato;5,545177;6;plant
T1;6,357842;30;F;English;correct;broccoli;2,833213;8;plant
T1;6,300786;33;F;English;correct;eggplant;1,791759;8;plant
T1;6,326149;34;F;English;correct;almond;4,204693;6;plant
T1;6,413459;35;F;English;correct;eagle;5,117994;5;animal
T1;6,342121;37;F;English;correct;strawberry;4,75359;10;plant
T1;6,177944;38;F;English;correct;kiwi;3,044522;4;plant
T1;6,295266;39;F;English;correct;mouse;5,805135;5;animal
T1;6,74876;43;F;English;incorrect;stork;3,044522;5;animal
T1;6,680855;45;F;English;correct;gherkin;2,079442;7;plant
T1;6,276643;46;F;English;correct;goose;5,267858;5;animal
T1;6,45047;48;F;English;correct;blackberry;4,060443;10;plant
T1;6,593045;51;F;English;correct;woodpecker;2,890372;10;animal
T1;6,188264;52;F;English;correct;lion;6,098074;4;animal
T1;6,39693;55;F;English;correct;spider;4,844187;6;animal
T1;6,507278;56;F;English;correct;hedgehog;3,637586;8;animal
T1;6,340359;57;F;English;correct;olive;5,587249;5;plant
T1;6,381816;59;F;English;correct;dolphin;4,007333;7;animal
T1;6,452049;60;F;English;correct;butterfly;5,214936;9;animal
T1;6,249975;61;F;English;correct;monkey;5,783825;6;animal
T1;6,306275;62;F;English;correct;goat;6,228511;4;animal
T1;6,745236;66;F;English;correct;clove;3,663562;5;plant
T1;6,452049;67;F;English;correct;mustard;4,442651;7;plant
T1;6,278521;68;F;English;correct;magpie;2,995732;6;animal
T1;6,113682;69;F;English;correct;blueberry;2,484907;9;plant
T1;6,326149;70;F;English;correct;whale;5,298317;5;animal
T1;7,125283;72;F;English;correct;reindeer;4,043051;8;animal
T1;6,261492;73;F;English;correct;lemon;5,631212;5;plant
T1;6,424869;77;F;English;correct;melon;4,127134;5;plant
T1;6,487684;78;F;English;correct;apricot;3,828641;7;plant
T1;6,472346;79;F;English;correct;orange;6,378426;6;plant
T1;6,393591;82;F;English;correct;owl;4,859812;3;animal
T1;6,70196;84;F;English;correct;bee;5,700444;3;animal
T1;6,40688;86;F;English;correct;bunny;3,332205;5;animal
T1;6,253829;87;F;English;correct;horse;7,77191;5;animal
T1;6,562444;88;F;English;correct;leek;3,332205;4;plant
T1;6,003887;89;F;English;correct;potato;6,461468;6;plant
T1;6,196444;90;F;English;correct;carrot;4,976734;6;plant
T1;6,381816;92;F;English;correct;frog;5,129899;4;animal
T1;6,338594;93;F;English;correct;walnut;4,49981;6;plant
T1;6,291569;96;F;English;correct;squid;3,970292;5;animal
T1;6,329721;103;F;English;correct;apple;6,304449;5;plant
T1;6,361302;105;F;English;correct;pineapple;3,988984;9;plant
T1;6,212606;107;F;English;correct;dog;7,667626;3;animal
T1;6,369901;108;F;English;correct;fox;5,652489;3;animal
T1;6,424869;109;F;English;correct;tortoise;4,624973;8;animal
T1;6,597146;118;F;English;correct;gull;4,418841;4;animal
T1;6,192362;119;F;English;correct;sheep;6,577861;5;animal
T1;6,45047;122;F;English;correct;wasp;4,682131;4;animal
T1;6,324359;125;F;English;correct;donkey;5,541264;6;animal
T1;6,424869;129;F;English;correct;asparagus;3,663562;9;plant
T1;6,317165;131;F;English;correct;beetroot;3,555348;8;plant
T1;6,084499;132;F;English;incorrect;bat;5,918894;3;animal
T1;6,326149;134;F;English;correct;ant;5,347108;3;animal
T1;6,584791;137;F;English;correct;vulture;4,248495;7;animal
T1;6,335054;139;F;English;correct;radish;3,044522;6;plant
T1;6,496775;141;F;English;correct;squirrel;4,70953;8;animal
T1;6,388561;143;F;English;correct;mole;4,60517;4;animal
T1;6,269096;144;F;English;correct;banana;5,023881;6;plant
T1;6,184149;145;F;English;correct;moose;2,70805;5;animal
T1;6,188264;153;F;English;correct;peanut;4,59512;6;plant
T1;6,200509;155;F;English;correct;shark;5,880533;5;animal
T1;6,309918;156;F;English;correct;camel;6,109248;5;animal
T1;6,388561;157;F;English;correct;swan;4,962845;4;animal
T1;6,517671;159;F;English;correct;paprika;2,484907;7;plant
T1;6,408529;160;F;English;correct;crocodile;4,615121;9;animal
T1;6,073045;165;F;English;incorrect;snake;6,120297;5;animal
T1;6,318968;166;F;English;correct;pear;4,727388;4;plant
T1;6,45677;168;F;English;correct;cucumber;4,454347;8;plant
T1;6,33328;170;F;English;correct;elephant;6,063785;8;animal
T1;6,180017;171;F;English;correct;beaver;3,951244;6;animal
T1;6,214608;177;F;English;correct;lettuce;4,812184;7;plant
T1;6,287859;178;F;English;correct;grape;5,192957;5;plant
T1;6,102559;179;F;English;correct;cherry;4,997212;6;plant
T1;6,293419;182;F;English;correct;pig;6,660575;3;animal
T1;6,173786;183;F;English;correct;mushroom;5,537334;8;plant
T2;7,2086;26;F;Other;correct;reindeer;4,043051;8;animal
T2;7,198184;27;F;Other;correct;blueberry;2,484907;9;plant
T2;6,846943;29;F;Other;correct;horse;7,77191;5;animal
T2;6,829794;32;F;Other;correct;radish;3,044522;6;plant
T2;7,007601;38;F;Other;correct;beaver;3,951244;6;animal
T2;6,822197;39;F;Other;correct;banana;5,023881;6;plant
T2;6,763885;40;F;Other;correct;moose;2,70805;5;animal
T2;6,971669;41;F;Other;correct;squirrel;4,70953;8;animal
T2;7,587311;44;F;Other;incorrect;gherkin;2,079442;7;plant
T2;6,821107;46;F;Other;correct;butterfly;5,214936;9;animal
T2;7,037906;48;F;Other;correct;whale;5,298317;5;animal
T2;6,835185;50;F;Other;correct;blackberry;4,060443;10;plant
T2;6,630683;52;F;Other;correct;melon;4,127134;5;plant
T2;6,890609;53;F;Other;correct;spider;4,844187;6;animal
T2;6,602588;54;F;Other;correct;dog;7,667626;3;animal
T2;6,725034;55;F;Other;correct;pear;4,727388;4;plant
T2;7,017506;56;F;Other;correct;tortoise;4,624973;8;animal
T2;6,57368;58;F;Other;correct;kiwi;3,044522;4;plant
T2;6,969791;60;F;Other;incorrect;peanut;4,59512;6;plant
T2;7,032624;62;F;Other;correct;beetroot;3,555348;8;plant
T2;6,848005;63;F;Other;correct;squid;3,970292;5;animal
T2;6,805723;64;F;Other;incorrect;magpie;2,995732;6;animal
T2;6,966024;66;F;Other;correct;mole;4,60517;4;animal
T2;6,81564;69;F;Other;correct;walnut;4,49981;6;plant
T2;6,731018;72;F;Other;correct;olive;5,587249;5;plant
T2;6,993015;73;F;Other;correct;camel;6,109248;5;animal
T2;6,768493;74;F;Other;correct;monkey;5,783825;6;animal
T2;6,476972;77;F;Other;correct;cat;7,086738;3;animal
T2;6,940222;80;F;Other;correct;pineapple;3,988984;9;plant
T2;6,371612;81;F;Other;correct;lemon;5,631212;5;plant
T2;6,526495;82;F;Other;correct;pig;6,660575;3;animal
T2;7,03966;83;F;Other;correct;wasp;4,682131;4;animal
T2;6,849066;85;F;Other;correct;mustard;4,442651;7;plant
T2;6,884487;86;F;Other;correct;strawberry;4,75359;10;plant
T2;6,814543;89;F;Other;correct;shark;5,880533;5;animal
T2;7,014814;92;F;Other;correct;dolphin;4,007333;7;animal
T2;6,874198;93;F;Other;incorrect;hedgehog;3,637586;8;animal
T2;7,224025;95;F;Other;incorrect;vulture;4,248495;7;animal
T2;6,886532;96;F;Other;correct;goose;5,267858;5;animal
T2;6,768493;100;F;Other;correct;swan;4,962845;4;animal
T2;6,568078;101;F;Other;correct;lion;6,098074;4;animal
T2;6,900731;102;F;Other;correct;eggplant;1,791759;8;plant
T2;7,117206;103;F;Other;correct;paprika;2,484907;7;plant
T2;7,055313;108;F;Other;correct;woodpecker;2,890372;10;animal
T2;6,716595;109;F;Other;correct;tomato;5,545177;6;plant
T2;6,590301;110;F;Other;correct;gull;4,418841;4;animal
T2;6,654153;112;F;Other;correct;broccoli;2,833213;8;plant
T2;6,566672;115;F;Other;correct;clove;3,663562;5;plant
T2;6,493754;117;F;Other;correct;bat;5,918894;3;animal
T2;6,511745;118;F;Other;correct;apple;6,304449;5;plant
T2;6,781058;119;F;Other;correct;apricot;3,828641;7;plant
T2;6,811244;121;F;Other;incorrect;crocodile;4,615121;9;animal
T2;6,877296;122;F;Other;incorrect;almond;4,204693;6;plant
T2;6,813445;124;F;Other;correct;cucumber;4,454347;8;plant
T2;6,719013;125;F;Other;correct;lettuce;4,812184;7;plant
T2;6,754604;131;F;Other;correct;orange;6,378426;6;plant
T2;6,795706;133;F;Other;correct;grape;5,192957;5;plant
T2;7,053586;135;F;Other;correct;eagle;5,117994;5;animal
T2;6,582025;138;F;Other;correct;frog;5,129899;4;animal
T2;6,812345;142;F;Other;correct;goat;6,228511;4;animal
T2;6,872128;144;F;Other;correct;potato;6,461468;6;plant
T2;6,628041;145;F;Other;correct;bee;5,700444;3;animal
T2;6,532334;146;F;Other;correct;chicken;6,59987;7;animal
T2;6,530878;149;F;Other;correct;leek;3,332205;4;plant
T2;6,603944;151;F;Other;correct;carrot;4,976734;6;plant
T2;6,569481;152;F;Other;correct;sheep;6,577861;5;animal
T2;6,583409;157;F;Other;correct;owl;4,859812;3;animal
T2;6,768493;158;F;Other;correct;snake;6,120297;5;animal
T2;6,803505;159;F;Other;correct;avocado;3,433987;7;plant
T2;7,036148;162;F;Other;correct;bunny;3,332205;5;animal
T2;6,597146;164;F;Other;correct;mushroom;5,537334;8;plant
T2;6,514713;165;F;Other;correct;ant;5,347108;3;animal
T2;6,723832;166;F;Other;correct;asparagus;3,663562;9;plant
T2;6,542472;173;F;Other;correct;fox;5,652489;3;animal
T2;7,223296;174;F;Other;correct;elephant;6,063785;8;animal
T2;6,50279;175;F;Other;correct;mouse;5,805135;5;animal
T2;7,053586;178;F;Other;correct;cherry;4,997212;6;plant
T2;6,673298;179;F;Other;correct;donkey;5,541264;6;animal
T2;6,88551;183;F;Other;correct;stork;3,044522;5;animal
V;6,921658;23;F;Other;incorrect;stork;3,044522;5;animal
V;6,958448;25;F;Other;correct;eagle;5,117994;5;animal
V;6,426488;28;F;Other;correct;dog;7,667626;3;animal
V;6,756932;29;F;Other;correct;clove;3,663562;5;plant
V;6,844815;31;F;Other;correct;swan;4,962845;4;animal
V;6,371612;32;F;Other;correct;ant;5,347108;3;animal
V;6,493754;33;F;Other;correct;melon;4,127134;5;plant
V;6,603944;35;F;Other;correct;wasp;4,682131;4;animal
V;6,338594;36;F;Other;correct;shark;5,880533;5;animal
V;6,447306;39;F;Other;correct;snake;6,120297;5;animal
V;6,514713;42;F;Other;correct;donkey;5,541264;6;animal
V;6,490724;45;F;Other;correct;gull;4,418841;4;animal
V;6,753438;46;F;Other;correct;radish;3,044522;6;plant
V;6,731018;48;F;Other;correct;cucumber;4,454347;8;plant
V;6,568078;52;F;Other;correct;pear;4,727388;4;plant
V;6,40688;55;F;Other;correct;mouse;5,805135;5;animal
V;6,602588;57;F;Other;correct;leek;3,332205;4;plant
V;6,39693;60;F;Other;correct;goat;6,228511;4;animal
V;6,781058;61;F;Other;incorrect;gherkin;2,079442;7;plant
V;6,770789;63;F;Other;correct;pineapple;3,988984;9;plant
V;6,452049;66;F;Other;correct;grape;5,192957;5;plant
V;7,055313;67;F;Other;correct;tortoise;4,624973;8;animal
V;6,43935;69;F;Other;correct;dolphin;4,007333;7;animal
V;6,378426;70;F;Other;correct;sheep;6,577861;5;animal
V;6,751101;72;F;Other;correct;mustard;4,442651;7;plant
V;6,49224;73;F;Other;correct;whale;5,298317;5;animal
V;6,605298;74;F;Other;correct;eggplant;1,791759;8;plant
V;6,793466;77;F;Other;correct;squirrel;4,70953;8;animal
V;6,347389;78;F;Other;correct;pig;6,660575;3;animal
V;6,539586;79;F;Other;correct;walnut;4,49981;6;plant
V;6,322565;81;F;Other;correct;bee;5,700444;3;animal
V;6,440947;83;F;Other;correct;peanut;4,59512;6;plant
V;6,590301;84;F;Other;correct;orange;6,378426;6;plant
V;6,50279;87;F;Other;correct;avocado;3,433987;7;plant
V;6,52503;89;F;Other;correct;almond;4,204693;6;plant
V;6,703188;93;F;Other;correct;squid;3,970292;5;animal
V;6,444131;97;F;Other;correct;lion;6,098074;4;animal
V;6,526495;99;F;Other;correct;butterfly;5,214936;9;animal
V;6,352629;101;F;Other;correct;spider;4,844187;6;animal
V;6,961296;106;F;Other;incorrect;elephant;6,063785;8;animal
V;6,729824;107;F;Other;correct;crocodile;4,615121;9;animal
V;6,416732;108;F;Other;correct;cat;7,086738;3;animal
V;6,556778;110;F;Other;correct;mole;4,60517;4;animal
V;6,582025;112;F;Other;correct;cherry;4,997212;6;plant
V;6,717805;117;F;Other;correct;lettuce;4,812184;7;plant
V;6,84588;119;F;Other;correct;camel;6,109248;5;animal
V;6,626718;121;F;Other;correct;bunny;3,332205;5;animal
V;6,493754;122;F;Other;correct;frog;5,129899;4;animal
V;6,731018;123;F;Other;correct;beaver;3,951244;6;animal
V;6,883463;130;F;Other;correct;horse;7,77191;5;animal
V;6,375025;131;F;Other;correct;banana;5,023881;6;plant
V;6,58755;133;F;Other;correct;olive;5,587249;5;plant
V;6,426488;135;F;Other;correct;lemon;5,631212;5;plant
V;6,508769;137;F;Other;correct;kiwi;3,044522;4;plant
V;6,796824;138;F;Other;correct;owl;4,859812;3;animal
V;6,795706;139;F;Other;correct;magpie;2,995732;6;animal
V;6,431331;140;F;Other;correct;blueberry;2,484907;9;plant
V;6,816736;141;F;Other;correct;reindeer;4,043051;8;animal
V;6,572283;142;F;Other;correct;mushroom;5,537334;8;plant
V;6,35437;143;F;Other;correct;goose;5,267858;5;animal
V;6,378426;144;F;Other;correct;moose;2,70805;5;animal
V;6,527958;145;F;Other;correct;paprika;2,484907;7;plant
V;6,561031;146;F;Other;correct;strawberry;4,75359;10;plant
V;6,934397;147;F;Other;correct;vulture;4,248495;7;animal
V;6,507278;148;F;Other;correct;beetroot;3,555348;8;plant
V;6,50279;150;F;Other;correct;apple;6,304449;5;plant
V;6,788972;154;F;Other;correct;woodpecker;2,890372;10;animal
V;6,461468;155;F;Other;correct;chicken;6,59987;7;animal
V;6,823286;160;F;Other;correct;hedgehog;3,637586;8;animal
V;6,739337;162;F;Other;correct;asparagus;3,663562;9;plant
V;6,679599;164;F;Other;correct;blackberry;4,060443;10;plant
V;6,426488;165;F;Other;correct;carrot;4,976734;6;plant
V;6,390241;166;F;Other;correct;fox;5,652489;3;animal
V;6,475433;169;F;Other;correct;monkey;5,783825;6;animal
V;6,424869;171;F;Other;correct;tomato;5,545177;6;plant
V;6,381816;177;F;Other;correct;bat;5,918894;3;animal
V;6,618739;178;F;Other;correct;potato;6,461468;6;plant
V;6,455199;179;F;Other;correct;apricot;3,828641;7;plant
V;6,668228;181;F;Other;correct;broccoli;2,833213;8;plant
W1;6,483107;33;M;English;correct;grape;5,192957;5;plant
W1;6,329721;34;M;English;correct;monkey;5,783825;6;animal
W1;6,381816;36;M;English;correct;pig;6,660575;3;animal
W1;6,352629;37;M;English;correct;pineapple;3,988984;9;plant
W1;6,278521;38;M;English;correct;avocado;3,433987;7;plant
W1;6,2186;41;M;English;correct;bat;5,918894;3;animal
W1;6,238325;43;M;English;correct;broccoli;2,833213;8;plant
W1;6,570883;48;M;English;correct;hedgehog;3,637586;8;animal
W1;6,347389;50;M;English;correct;swan;4,962845;4;animal
W1;6,20859;51;M;English;correct;chicken;6,59987;7;animal
W1;6,244167;52;M;English;correct;walnut;4,49981;6;plant
W1;6,177944;53;M;English;correct;mouse;5,805135;5;animal
W1;6,202536;54;M;English;correct;strawberry;4,75359;10;plant
W1;6,380123;57;M;English;correct;radish;3,044522;6;plant
W1;6,146329;58;M;English;correct;elephant;6,063785;8;animal
W1;6,137727;59;M;English;correct;donkey;5,541264;6;animal
W1;6,561031;65;M;English;correct;tortoise;4,624973;8;animal
W1;6,381816;68;M;English;correct;leek;3,332205;4;plant
W1;6,526495;69;M;English;correct;beetroot;3,555348;8;plant
W1;6,36647;71;M;English;correct;woodpecker;2,890372;10;animal
W1;6,34388;74;M;English;correct;almond;4,204693;6;plant
W1;6,289716;76;M;English;correct;apple;6,304449;5;plant
W1;6,329721;77;M;English;correct;ant;5,347108;3;animal
W1;6,152733;78;M;English;correct;moose;2,70805;5;animal
W1;6,180017;79;M;English;correct;kiwi;3,044522;4;plant
W1;6,338594;82;M;English;correct;cucumber;4,454347;8;plant
W1;6,146329;83;M;English;correct;blackberry;4,060443;10;plant
W1;6,253829;84;M;English;correct;beaver;3,951244;6;animal
W1;6,182085;85;M;English;correct;mushroom;5,537334;8;plant
W1;6,12905;86;M;English;correct;eagle;5,117994;5;animal
W1;6,224558;88;M;English;correct;lettuce;4,812184;7;plant
W1;6,144186;89;M;English;correct;lion;6,098074;4;animal
W1;6,109248;92;M;English;correct;olive;5,587249;5;plant
W1;6,186209;94;M;English;correct;bunny;3,332205;5;animal
W1;6,202536;97;M;English;correct;cat;7,086738;3;animal
W1;6,45047;98;M;English;incorrect;gherkin;2,079442;7;plant
W1;6,202536;99;M;English;correct;wasp;4,682131;4;animal
W1;6,278521;101;M;English;correct;owl;4,859812;3;animal
W1;6,322565;102;M;English;incorrect;paprika;2,484907;7;plant
W1;6,242223;103;M;English;correct;whale;5,298317;5;animal
W1;6,061457;105;M;English;correct;goat;6,228511;4;animal
W1;6,122493;106;M;English;correct;peanut;4,59512;6;plant
W1;6,180017;108;M;English;correct;banana;5,023881;6;plant
W1;6,139885;109;M;English;correct;frog;5,129899;4;animal
W1;6,466145;112;M;English;correct;reindeer;4,043051;8;animal
W1;6,045005;113;M;English;correct;sheep;6,577861;5;animal
W1;6,510258;120;M;English;correct;fox;5,652489;3;animal
W1;6,282267;121;M;English;correct;apricot;3,828641;7;plant
W1;6,313548;123;M;English;correct;camel;6,109248;5;animal
W1;6,198479;124;M;English;correct;squid;3,970292;5;animal
W1;6,226537;128;M;English;correct;dolphin;4,007333;7;animal
W1;6,480045;129;M;English;correct;cherry;4,997212;6;plant
W1;6,232448;130;M;English;correct;vulture;4,248495;7;animal
W1;6,317165;132;M;English;incorrect;stork;3,044522;5;animal
W1;6,242223;133;M;English;correct;butterfly;5,214936;9;animal
W1;6,216606;136;M;English;correct;asparagus;3,663562;9;plant
W1;6,122493;138;M;English;correct;bee;5,700444;3;animal
W1;6,270988;139;M;English;correct;pear;4,727388;4;plant
W1;6,142037;140;M;English;correct;horse;7,77191;5;animal
W1;6,212606;141;M;English;correct;magpie;2,995732;6;animal
W1;6,188264;142;M;English;correct;snake;6,120297;5;animal
W1;6,216606;143;M;English;correct;gull;4,418841;4;animal
W1;6,150603;145;M;English;correct;mole;4,60517;4;animal
W1;6,249975;147;M;English;correct;squirrel;4,70953;8;animal
W1;6,224558;148;M;English;correct;goose;5,267858;5;animal
W1;6,200509;149;M;English;correct;dog;7,667626;3;animal
W1;6,234411;151;M;English;correct;potato;6,461468;6;plant
W1;6,133398;153;M;English;correct;shark;5,880533;5;animal
W1;6,309918;160;M;English;correct;lemon;5,631212;5;plant
W1;6,357842;163;M;English;correct;mustard;4,442651;7;plant
W1;6,304449;165;M;English;correct;melon;4,127134;5;plant
W1;6,228511;166;M;English;correct;tomato;5,545177;6;plant
W1;6,269096;167;M;English;correct;spider;4,844187;6;animal
W1;6,248043;168;M;English;correct;blueberry;2,484907;9;plant
W1;6,452049;172;M;English;correct;clove;3,663562;5;plant
W1;6,242223;173;M;English;correct;crocodile;4,615121;9;animal
W1;6,270988;176;M;English;correct;eggplant;1,791759;8;plant
W1;6,342121;180;M;English;correct;carrot;4,976734;6;plant
W1;6,198479;181;M;English;correct;orange;6,378426;6;plant
W2;6,625392;25;M;English;correct;avocado;3,433987;7;plant
W2;6,526495;28;M;English;correct;blueberry;2,484907;9;plant
W2;6,416732;31;M;English;correct;squirrel;4,70953;8;animal
W2;6,401917;33;M;English;correct;mushroom;5,537334;8;plant
W2;6,444131;34;M;English;correct;woodpecker;2,890372;10;animal
W2;6,336826;35;M;English;correct;banana;5,023881;6;plant
W2;6,194405;36;M;English;correct;cat;7,086738;3;animal
W2;6,47851;45;M;English;correct;donkey;5,541264;6;animal
W2;6,990257;47;M;English;correct;potato;6,461468;6;plant
W2;6,579251;48;M;English;correct;blackberry;4,060443;10;plant
W2;6,499787;51;M;English;correct;owl;4,859812;3;animal
W2;6,395262;55;M;English;correct;lemon;5,631212;5;plant
W2;6,802395;57;M;English;correct;kiwi;3,044522;4;plant
W2;6,526495;60;M;English;correct;bat;5,918894;3;animal
W2;6,60665;62;M;English;correct;grape;5,192957;5;plant
W2;6,634633;64;M;English;correct;hedgehog;3,637586;8;animal
W2;6,569481;68;M;English;correct;mole;4,60517;4;animal
W2;6,498282;69;M;English;correct;carrot;4,976734;6;plant
W2;6,43615;74;M;English;correct;ant;5,347108;3;animal
W2;6,532334;75;M;English;correct;fox;5,652489;3;animal
W2;6,434547;76;M;English;correct;mustard;4,442651;7;plant
W2;6,395262;78;M;English;correct;lettuce;4,812184;7;plant
W2;6,591674;80;M;English;correct;paprika;2,484907;7;plant
W2;6,577861;83;M;English;correct;cucumber;4,454347;8;plant
W2;6,533789;85;M;English;correct;sheep;6,577861;5;animal
W2;6,559615;89;M;English;correct;lion;6,098074;4;animal
W2;6,790097;90;M;English;correct;vulture;4,248495;7;animal
W2;6,81564;95;M;English;correct;radish;3,044522;6;plant
W2;6,828712;98;M;English;correct;crocodile;4,615121;9;animal
W2;6,401917;99;M;English;correct;snake;6,120297;5;animal
W2;6,693324;101;M;English;correct;strawberry;4,75359;10;plant
W2;6,35437;102;M;English;correct;goose;5,267858;5;animal
W2;6,507278;107;M;English;correct;frog;5,129899;4;animal
W2;6,527958;111;M;English;correct;eagle;5,117994;5;animal
W2;6,679599;112;M;English;correct;moose;2,70805;5;animal
W2;7,009409;115;M;English;correct;wasp;4,682131;4;animal
W2;6,300786;118;M;English;correct;bee;5,700444;3;animal
W2;6,431331;119;M;English;correct;squid;3,970292;5;animal
W2;6,744059;121;M;English;correct;asparagus;3,663562;9;plant
W2;6,533789;122;M;English;correct;melon;4,127134;5;plant
W2;6,423247;123;M;English;correct;gull;4,418841;4;animal
W2;6,335054;124;M;English;correct;clove;3,663562;5;plant
W2;6,642487;125;M;English;correct;tortoise;4,624973;8;animal
W2;6,495266;126;M;English;correct;horse;7,77191;5;animal
W2;6,410175;127;M;English;correct;tomato;5,545177;6;plant
W2;6,190315;128;M;English;correct;monkey;5,783825;6;animal
W2;6,289716;129;M;English;correct;dog;7,667626;3;animal
W2;6,159095;130;M;English;correct;swan;4,962845;4;animal
W2;6,352629;131;M;English;correct;pineapple;3,988984;9;plant
W2;6,276643;132;M;English;correct;eggplant;1,791759;8;plant
W2;6,234411;135;M;English;correct;orange;6,378426;6;plant
W2;6,318968;137;M;English;correct;peanut;4,59512;6;plant
W2;6,342121;138;M;English;correct;magpie;2,995732;6;animal
W2;6,297109;140;M;English;correct;shark;5,880533;5;animal
W2;6,363028;142;M;English;correct;leek;3,332205;4;plant
W2;6,345636;145;M;English;correct;butterfly;5,214936;9;animal
W2;6,318968;146;M;English;correct;bunny;3,332205;5;animal
W2;6,257668;147;M;English;correct;apple;6,304449;5;plant
W2;6,276643;148;M;English;correct;goat;6,228511;4;animal
W2;6,380123;149;M;English;correct;camel;6,109248;5;animal
W2;6,263398;151;M;English;correct;elephant;6,063785;8;animal
W2;6,317165;152;M;English;correct;spider;4,844187;6;animal
W2;6,381816;154;M;English;correct;stork;3,044522;5;animal
W2;6,652863;155;M;English;correct;broccoli;2,833213;8;plant
W2;6,774224;157;M;English;correct;mouse;5,805135;5;animal
W2;6,593045;159;M;English;correct;apricot;3,828641;7;plant
W2;6,43615;161;M;English;correct;walnut;4,49981;6;plant
W2;6,272877;162;M;English;correct;almond;4,204693;6;plant
W2;6,206576;163;M;English;correct;olive;5,587249;5;plant
W2;6,142037;165;M;English;correct;beaver;3,951244;6;animal
W2;6,710523;166;M;English;correct;gherkin;2,079442;7;plant
W2;6,380123;169;M;English;correct;dolphin;4,007333;7;animal
W2;6,50279;170;M;English;correct;reindeer;4,043051;8;animal
W2;6,184149;171;M;English;correct;chicken;6,59987;7;animal
W2;6,426488;174;M;English;correct;beetroot;3,555348;8;plant
W2;6,22059;175;M;English;correct;pig;6,660575;3;animal
W2;6,196444;176;M;English;correct;pear;4,727388;4;plant
W2;6,463029;179;M;English;correct;whale;5,298317;5;animal
W2;6,336826;183;M;English;correct;cherry;4,997212;6;plant
Z;6,642487;24;M;Other;correct;radish;3,044522;6;plant
Z;6,320768;25;M;Other;correct;leek;3,332205;4;plant
Z;6,40688;28;M;Other;correct;potato;6,461468;6;plant
Z;6,463029;30;M;Other;correct;squid;3,970292;5;animal
Z;6,390241;31;M;Other;correct;grape;5,192957;5;plant
Z;6,612041;34;M;Other;incorrect;paprika;2,484907;7;plant
Z;6,588926;36;M;Other;correct;monkey;5,783825;6;animal
Z;6,790097;38;M;Other;correct;cucumber;4,454347;8;plant
Z;6,652863;39;M;Other;correct;dolphin;4,007333;7;animal
Z;6,361302;40;M;Other;correct;bee;5,700444;3;animal
Z;7,111512;49;M;Other;correct;stork;3,044522;5;animal
Z;6,717805;50;M;Other;correct;elephant;6,063785;8;animal
Z;6,712956;51;M;Other;correct;camel;6,109248;5;animal
Z;6,45047;52;M;Other;correct;orange;6,378426;6;plant
Z;6,60665;57;M;Other;correct;moose;2,70805;5;animal
Z;6,408529;59;M;Other;correct;bat;5,918894;3;animal
Z;6,663133;61;M;Other;correct;butterfly;5,214936;9;animal
Z;6,508769;63;M;Other;correct;goose;5,267858;5;animal
Z;6,359574;64;M;Other;correct;olive;5,587249;5;plant
Z;6,352629;65;M;Other;correct;banana;5,023881;6;plant
Z;7,044905;70;M;Other;correct;beetroot;3,555348;8;plant
Z;6,381816;73;M;Other;correct;pig;6,660575;3;animal
Z;6,452049;74;M;Other;correct;apricot;3,828641;7;plant
Z;6,679599;75;M;Other;correct;lettuce;4,812184;7;plant
Z;6,672033;77;M;Other;correct;spider;4,844187;6;animal
Z;6,697034;78;M;Other;correct;mole;4,60517;4;animal
Z;6,854355;79;M;Other;correct;broccoli;2,833213;8;plant
Z;6,419995;81;M;Other;correct;carrot;4,976734;6;plant
Z;6,345636;82;M;Other;correct;mouse;5,805135;5;animal
Z;6,788972;84;M;Other;incorrect;almond;4,204693;6;plant
Z;6,43935;86;M;Other;correct;chicken;6,59987;7;animal
Z;6,526495;87;M;Other;correct;snake;6,120297;5;animal
Z;6,293419;88;M;Other;correct;fox;5,652489;3;animal
Z;6,905753;89;M;Other;correct;woodpecker;2,890372;10;animal
Z;6,74876;91;M;Other;correct;dog;7,667626;3;animal
Z;6,508769;96;M;Other;correct;eagle;5,117994;5;animal
Z;6,6995;101;M;Other;incorrect;tortoise;4,624973;8;animal
Z;6,549651;106;M;Other;correct;whale;5,298317;5;animal
Z;6,375025;110;M;Other;correct;pear;4,727388;4;plant
Z;7,029973;111;M;Other;correct;hedgehog;3,637586;8;animal
Z;6,842683;112;M;Other;correct;reindeer;4,043051;8;animal
Z;6,777647;117;M;Other;correct;gull;4,418841;4;animal
Z;6,862758;119;M;Other;correct;crocodile;4,615121;9;animal
Z;6,570883;123;M;Other;correct;beaver;3,951244;6;animal
Z;7,17549;125;M;Other;correct;magpie;2,995732;6;animal
Z;7,000334;129;M;Other;incorrect;wasp;4,682131;4;animal
Z;6,511745;131;M;Other;correct;sheep;6,577861;5;animal
Z;6,320768;132;M;Other;correct;ant;5,347108;3;animal
Z;6,703188;133;M;Other;incorrect;walnut;4,49981;6;plant
Z;6,804615;135;M;Other;correct;vulture;4,248495;7;animal
Z;6,751101;136;M;Other;incorrect;asparagus;3,663562;9;plant
Z;6,620073;138;M;Other;correct;mustard;4,442651;7;plant
Z;6,559615;139;M;Other;correct;donkey;5,541264;6;animal
Z;7,128496;141;M;Other;correct;blueberry;2,484907;9;plant
Z;6,45047;144;M;Other;correct;clove;3,663562;5;plant
Z;6,904751;145;M;Other;incorrect;gherkin;2,079442;7;plant
Z;6,338594;146;M;Other;correct;apple;6,304449;5;plant
Z;6,464588;149;M;Other;correct;bunny;3,332205;5;animal
Z;6,317165;151;M;Other;correct;goat;6,228511;4;animal
Z;6,530878;152;M;Other;correct;peanut;4,59512;6;plant
Z;6,549651;154;M;Other;correct;kiwi;3,044522;4;plant
Z;6,776507;157;M;Other;correct;pineapple;3,988984;9;plant
Z;6,388561;159;M;Other;correct;lion;6,098074;4;animal
Z;6,665684;161;M;Other;correct;shark;5,880533;5;animal
Z;6,588926;162;M;Other;correct;blackberry;4,060443;10;plant
Z;6,43935;163;M;Other;correct;lemon;5,631212;5;plant
Z;6,324359;165;M;Other;correct;tomato;5,545177;6;plant
Z;6,493754;167;M;Other;correct;strawberry;4,75359;10;plant
Z;6,771936;168;M;Other;correct;eggplant;1,791759;8;plant
Z;6,313548;171;M;Other;correct;cherry;4,997212;6;plant
Z;6,527958;173;M;Other;correct;melon;4,127134;5;plant
Z;6,706862;175;M;Other;correct;owl;4,859812;3;animal
Z;6,253829;176;M;Other;correct;cat;7,086738;3;animal
Z;6,660575;177;M;Other;correct;mushroom;5,537334;8;plant
Z;6,505784;178;M;Other;correct;swan;4,962845;4;animal
Z;6,761573;179;M;Other;correct;squirrel;4,70953;8;animal
Z;6,782192;181;M;Other;correct;avocado;3,433987;7;plant
Z;6,2186;182;M;Other;correct;frog;5,129899;4;animal
Z;6,411818;185;M;Other;correct;horse;7,77191;5;animal
